# Cut-survival probability for tungsten-recoil events
# within the acceptance region for dark-matter searches
# Energy [keV] | Cut-survival probability
 0	0
 0.0040004	0
 0.0080008	0
 0.0120012	0
 0.0160016	0
 0.020002	0
 0.0240024	0
 0.0280028	0
 0.0320032	0
 0.0360036	0
 0.040004	0
 0.0440044	0
 0.0480048	0
 0.0520052	0
 0.0560056	0
 0.060006	0
 0.0640064	0
 0.0680068	0
 0.0720072	0
 0.0760076	0
 0.080008	0
 0.0840084	0
 0.0880088	0
 0.0920092	0
 0.0960096	0
 0.10001	0
 0.10401	0
 0.108011	0
 0.112011	0
 0.116012	0
 0.120012	0
 0.124012	0
 0.128013	0
 0.132013	0
 0.136014	0
 0.140014	0
 0.144014	0
 0.148015	0
 0.152015	0
 0.156016	0
 0.160016	0
 0.164016	0
 0.168017	0
 0.172017	0
 0.176018	0
 0.180018	0
 0.184018	0
 0.188019	0
 0.192019	0
 0.19602	0
 0.20002	0
 0.20402	0
 0.208021	0
 0.212021	0
 0.216022	0
 0.220022	0
 0.224022	0
 0.228023	0
 0.232023	0
 0.236024	0
 0.240024	0
 0.244024	0
 0.248025	0
 0.252025	0
 0.256026	0
 0.260026	0
 0.264026	0
 0.268027	0
 0.272027	0
 0.276028	0
 0.280028	0
 0.284028	0
 0.288029	0
 0.292029	0
 0.29603	0
 0.30003	0
 0.30403	0
 0.308031	0
 0.312031	0
 0.316032	0
 0.320032	0
 0.324032	0
 0.328033	0
 0.332033	0
 0.336034	0
 0.340034	0
 0.344034	0
 0.348035	0
 0.352035	0
 0.356036	0
 0.360036	0
 0.364036	0
 0.368037	0
 0.372037	0
 0.376038	0
 0.380038	0
 0.384038	0
 0.388039	0
 0.392039	0
 0.39604	0
 0.40004	0
 0.40404	0
 0.408041	0
 0.412041	0
 0.416042	0
 0.420042	0
 0.424042	0
 0.428043	0
 0.432043	0
 0.436044	0
 0.440044	0
 0.444044	0
 0.448045	0
 0.452045	0
 0.456046	0
 0.460046	0
 0.464046	0
 0.468047	0
 0.472047	0
 0.476048	0
 0.480048	0
 0.484048	0
 0.488049	0
 0.492049	0
 0.49605	0
 0.50005	0
 0.50405	0
 0.508051	0
 0.512051	0
 0.516052	0
 0.520052	0
 0.524052	0
 0.528053	0
 0.532053	0
 0.536054	0
 0.540054	0
 0.544054	0
 0.548055	0
 0.552055	0
 0.556056	0
 0.560056	0
 0.564056	0
 0.568057	0
 0.572057	0
 0.576058	0
 0.580058	0
 0.584058	0
 0.588059	0
 0.592059	0
 0.59606	0
 0.60006	0
 0.60406	0.0851322
 0.608061	0.0869828
 0.612061	0.0888365
 0.616062	0.0906931
 0.620062	0.0925529
 0.624062	0.0944156
 0.628063	0.0962814
 0.632063	0.0981502
 0.636064	0.100022
 0.640064	0.101897
 0.644064	0.103775
 0.648065	0.105656
 0.652065	0.107539
 0.656066	0.109426
 0.660066	0.111316
 0.664066	0.113209
 0.668067	0.115105
 0.672067	0.117004
 0.676068	0.118906
 0.680068	0.120811
 0.684068	0.122719
 0.688069	0.12463
 0.692069	0.126544
 0.69607	0.128461
 0.70007	0.130383
 0.70407	0.132458
 0.708071	0.134537
 0.712071	0.136619
 0.716072	0.138704
 0.720072	0.140792
 0.724072	0.142883
 0.728073	0.144978
 0.732073	0.147076
 0.736074	0.149177
 0.740074	0.151281
 0.744074	0.153388
 0.748075	0.155499
 0.752075	0.157613
 0.756076	0.15973
 0.760076	0.16185
 0.764076	0.163974
 0.768077	0.1661
 0.772077	0.16823
 0.776078	0.170363
 0.780078	0.1725
 0.784078	0.174639
 0.788079	0.176782
 0.792079	0.178928
 0.79608	0.181077
 0.80008	0.183226
 0.80408	0.185239
 0.808081	0.187256
 0.812081	0.189275
 0.816082	0.191297
 0.820082	0.193322
 0.824082	0.19535
 0.828083	0.197381
 0.832083	0.199415
 0.836084	0.201452
 0.840084	0.203492
 0.844084	0.205534
 0.848085	0.20758
 0.852085	0.209629
 0.856086	0.21168
 0.860086	0.213734
 0.864086	0.215791
 0.868087	0.217851
 0.872087	0.219914
 0.876088	0.22198
 0.880088	0.224049
 0.884088	0.226121
 0.888089	0.228195
 0.892089	0.230273
 0.89609	0.232353
 0.90009	0.234431
 0.90409	0.236272
 0.908091	0.238116
 0.912091	0.239963
 0.916092	0.241812
 0.920092	0.243664
 0.924092	0.245518
 0.928093	0.247374
 0.932093	0.249233
 0.936094	0.251095
 0.940094	0.252958
 0.944094	0.254825
 0.948095	0.256694
 0.952095	0.258565
 0.956096	0.260439
 0.960096	0.262315
 0.964096	0.264194
 0.968097	0.266075
 0.972097	0.267958
 0.976098	0.269844
 0.980098	0.271733
 0.984098	0.273624
 0.988099	0.275517
 0.992099	0.277413
 0.9961	0.279311
 1.0001	0.281201
 1.0041	0.28269
 1.0081	0.284181
 1.0121	0.285674
 1.0161	0.287168
 1.0201	0.288665
 1.0241	0.290163
 1.0281	0.291663
 1.0321	0.293164
 1.0361	0.294668
 1.0401	0.296173
 1.0441	0.29768
 1.0481	0.299189
 1.05211	0.300699
 1.05611	0.302211
 1.06011	0.303726
 1.06411	0.305241
 1.06811	0.306759
 1.07211	0.308278
 1.07611	0.3098
 1.08011	0.311322
 1.08411	0.312847
 1.08811	0.314374
 1.09211	0.315902
 1.09611	0.317432
 1.10011	0.318963
 1.10411	0.320497
 1.10811	0.322032
 1.11211	0.323569
 1.11611	0.325108
 1.12011	0.326648
 1.12411	0.32819
 1.12811	0.329734
 1.13211	0.33128
 1.13611	0.332827
 1.14011	0.334376
 1.14411	0.335927
 1.14811	0.33748
 1.15212	0.339034
 1.15612	0.34059
 1.16012	0.342148
 1.16412	0.343707
 1.16812	0.345268
 1.17212	0.346831
 1.17612	0.348396
 1.18012	0.349962
 1.18412	0.35153
 1.18812	0.3531
 1.19212	0.354671
 1.19612	0.356244
 1.20012	0.357807
 1.20412	0.358979
 1.20812	0.360152
 1.21212	0.361326
 1.21612	0.362502
 1.22012	0.363678
 1.22412	0.364856
 1.22812	0.366035
 1.23212	0.367215
 1.23612	0.368395
 1.24012	0.369578
 1.24412	0.370761
 1.24812	0.371945
 1.25213	0.373131
 1.25613	0.374317
 1.26013	0.375505
 1.26413	0.376693
 1.26813	0.377883
 1.27213	0.379074
 1.27613	0.380266
 1.28013	0.381459
 1.28413	0.382653
 1.28813	0.383849
 1.29213	0.385045
 1.29613	0.386243
 1.30013	0.387441
 1.30413	0.388641
 1.30813	0.389842
 1.31213	0.391043
 1.31613	0.392246
 1.32013	0.39345
 1.32413	0.394655
 1.32813	0.395862
 1.33213	0.397069
 1.33613	0.398277
 1.34013	0.399486
 1.34413	0.400697
 1.34813	0.401908
 1.35214	0.403121
 1.35614	0.404334
 1.36014	0.405549
 1.36414	0.406765
 1.36814	0.407982
 1.37214	0.4092
 1.37614	0.410419
 1.38014	0.411638
 1.38414	0.41286
 1.38814	0.414082
 1.39214	0.415305
 1.39614	0.416529
 1.40014	0.417744
 1.40414	0.418692
 1.40814	0.41964
 1.41214	0.420589
 1.41614	0.421538
 1.42014	0.422488
 1.42414	0.423439
 1.42814	0.424391
 1.43214	0.425343
 1.43614	0.426296
 1.44014	0.427249
 1.44414	0.428204
 1.44814	0.429158
 1.45215	0.430114
 1.45615	0.43107
 1.46015	0.432027
 1.46415	0.432984
 1.46815	0.433943
 1.47215	0.434901
 1.47615	0.435861
 1.48015	0.436821
 1.48415	0.437782
 1.48815	0.438743
 1.49215	0.439705
 1.49615	0.440668
 1.50015	0.441631
 1.50415	0.442595
 1.50815	0.44356
 1.51215	0.444525
 1.51615	0.445491
 1.52015	0.446458
 1.52415	0.447425
 1.52815	0.448393
 1.53215	0.449362
 1.53615	0.450331
 1.54015	0.451301
 1.54415	0.452271
 1.54815	0.453242
 1.55216	0.454214
 1.55616	0.455186
 1.56016	0.456159
 1.56416	0.457133
 1.56816	0.458107
 1.57216	0.459082
 1.57616	0.460057
 1.58016	0.461033
 1.58416	0.46201
 1.58816	0.462987
 1.59216	0.463965
 1.59616	0.464944
 1.60016	0.465918
 1.60416	0.466766
 1.60816	0.467614
 1.61216	0.468463
 1.61616	0.469312
 1.62016	0.470162
 1.62416	0.471012
 1.62816	0.471863
 1.63216	0.472714
 1.63616	0.473566
 1.64016	0.474418
 1.64416	0.47527
 1.64816	0.476123
 1.65217	0.476976
 1.65617	0.47783
 1.66017	0.478684
 1.66417	0.479539
 1.66817	0.480394
 1.67217	0.48125
 1.67617	0.482106
 1.68017	0.482962
 1.68417	0.483819
 1.68817	0.484676
 1.69217	0.485534
 1.69617	0.486392
 1.70017	0.487251
 1.70417	0.48811
 1.70817	0.488969
 1.71217	0.489829
 1.71617	0.490689
 1.72017	0.49155
 1.72417	0.492411
 1.72817	0.493273
 1.73217	0.494135
 1.73617	0.494997
 1.74017	0.49586
 1.74417	0.496723
 1.74817	0.497587
 1.75218	0.498451
 1.75618	0.499316
 1.76018	0.500181
 1.76418	0.501046
 1.76818	0.501912
 1.77218	0.502778
 1.77618	0.503644
 1.78018	0.504511
 1.78418	0.505379
 1.78818	0.506247
 1.79218	0.507115
 1.79618	0.507983
 1.80018	0.508847
 1.80418	0.509599
 1.80818	0.51035
 1.81218	0.511102
 1.81618	0.511855
 1.82018	0.512607
 1.82418	0.51336
 1.82818	0.514113
 1.83218	0.514867
 1.83618	0.51562
 1.84018	0.516374
 1.84418	0.517128
 1.84818	0.517883
 1.85219	0.518637
 1.85619	0.519392
 1.86019	0.520147
 1.86419	0.520903
 1.86819	0.521659
 1.87219	0.522415
 1.87619	0.523171
 1.88019	0.523927
 1.88419	0.524684
 1.88819	0.525441
 1.89219	0.526198
 1.89619	0.526956
 1.90019	0.527713
 1.90419	0.528471
 1.90819	0.529229
 1.91219	0.529988
 1.91619	0.530747
 1.92019	0.531506
 1.92419	0.532265
 1.92819	0.533024
 1.93219	0.533784
 1.93619	0.534544
 1.94019	0.535304
 1.94419	0.536064
 1.94819	0.536825
 1.9522	0.537586
 1.9562	0.538347
 1.9602	0.539109
 1.9642	0.53987
 1.9682	0.540632
 1.9722	0.541394
 1.9762	0.542156
 1.9802	0.542919
 1.9842	0.543682
 1.9882	0.544445
 1.9922	0.545208
 1.9962	0.545971
 2.0002	0.546728
 2.0042	0.547357
 2.0082	0.547985
 2.0122	0.548614
 2.0162	0.549243
 2.0202	0.549872
 2.0242	0.550501
 2.0282	0.551129
 2.0322	0.551759
 2.0362	0.552388
 2.0402	0.553017
 2.0442	0.553646
 2.0482	0.554276
 2.05221	0.554905
 2.05621	0.555535
 2.06021	0.556164
 2.06421	0.556794
 2.06821	0.557424
 2.07221	0.558053
 2.07621	0.558683
 2.08021	0.559313
 2.08421	0.559943
 2.08821	0.560574
 2.09221	0.561204
 2.09621	0.561834
 2.10021	0.562464
 2.10421	0.563095
 2.10821	0.563725
 2.11221	0.564356
 2.11621	0.564986
 2.12021	0.565617
 2.12421	0.566248
 2.12821	0.566879
 2.13221	0.56751
 2.13621	0.568141
 2.14021	0.568772
 2.14421	0.569403
 2.14821	0.570034
 2.15222	0.570665
 2.15622	0.571296
 2.16022	0.571928
 2.16422	0.572559
 2.16822	0.573191
 2.17222	0.573822
 2.17622	0.574454
 2.18022	0.575085
 2.18422	0.575717
 2.18822	0.576349
 2.19222	0.576981
 2.19622	0.577612
 2.20022	0.57824
 2.20422	0.578797
 2.20822	0.579353
 2.21222	0.57991
 2.21622	0.580466
 2.22022	0.581023
 2.22422	0.581579
 2.22822	0.582136
 2.23222	0.582692
 2.23622	0.583249
 2.24022	0.583805
 2.24422	0.584362
 2.24822	0.584918
 2.25223	0.585474
 2.25623	0.58603
 2.26023	0.586587
 2.26423	0.587143
 2.26823	0.587699
 2.27223	0.588255
 2.27623	0.588812
 2.28023	0.589368
 2.28423	0.589924
 2.28823	0.59048
 2.29223	0.591036
 2.29623	0.591592
 2.30023	0.592148
 2.30423	0.592704
 2.30823	0.59326
 2.31223	0.593816
 2.31623	0.594372
 2.32023	0.594928
 2.32423	0.595484
 2.32823	0.596039
 2.33223	0.596595
 2.33623	0.597151
 2.34023	0.597707
 2.34423	0.598262
 2.34823	0.598818
 2.35224	0.599373
 2.35624	0.599929
 2.36024	0.600485
 2.36424	0.60104
 2.36824	0.601595
 2.37224	0.602151
 2.37624	0.602706
 2.38024	0.603262
 2.38424	0.603817
 2.38824	0.604372
 2.39224	0.604927
 2.39624	0.605483
 2.40024	0.606035
 2.40424	0.606536
 2.40824	0.607038
 2.41224	0.60754
 2.41624	0.608042
 2.42024	0.608543
 2.42424	0.609044
 2.42824	0.609546
 2.43224	0.610047
 2.43624	0.610548
 2.44024	0.611049
 2.44424	0.61155
 2.44824	0.612051
 2.45225	0.612552
 2.45625	0.613053
 2.46025	0.613553
 2.46425	0.614054
 2.46825	0.614554
 2.47225	0.615054
 2.47625	0.615555
 2.48025	0.616055
 2.48425	0.616555
 2.48825	0.617055
 2.49225	0.617555
 2.49625	0.618054
 2.50025	0.618554
 2.50425	0.619054
 2.50825	0.619553
 2.51225	0.620052
 2.51625	0.620552
 2.52025	0.621051
 2.52425	0.62155
 2.52825	0.622049
 2.53225	0.622548
 2.53625	0.623047
 2.54025	0.623545
 2.54425	0.624044
 2.54825	0.624542
 2.55226	0.625041
 2.55626	0.625539
 2.56026	0.626037
 2.56426	0.626535
 2.56826	0.627033
 2.57226	0.627531
 2.57626	0.628029
 2.58026	0.628526
 2.58426	0.629024
 2.58826	0.629521
 2.59226	0.630019
 2.59626	0.630516
 2.60026	0.631009
 2.60426	0.631441
 2.60826	0.631874
 2.61226	0.632306
 2.61626	0.632738
 2.62026	0.63317
 2.62426	0.633601
 2.62826	0.634033
 2.63226	0.634464
 2.63626	0.634895
 2.64026	0.635326
 2.64426	0.635757
 2.64826	0.636188
 2.65227	0.636618
 2.65627	0.637049
 2.66027	0.637479
 2.66427	0.637909
 2.66827	0.638339
 2.67227	0.638769
 2.67627	0.639198
 2.68027	0.639627
 2.68427	0.640057
 2.68827	0.640486
 2.69227	0.640915
 2.69627	0.641343
 2.70027	0.641772
 2.70427	0.6422
 2.70827	0.642629
 2.71227	0.643057
 2.71627	0.643485
 2.72027	0.643912
 2.72427	0.64434
 2.72827	0.644767
 2.73227	0.645195
 2.73627	0.645622
 2.74027	0.646049
 2.74427	0.646476
 2.74827	0.646902
 2.75228	0.647329
 2.75628	0.647755
 2.76028	0.648181
 2.76428	0.648607
 2.76828	0.649033
 2.77228	0.649458
 2.77628	0.649884
 2.78028	0.650309
 2.78428	0.650734
 2.78828	0.651159
 2.79228	0.651584
 2.79628	0.652009
 2.80028	0.652431
 2.80428	0.652819
 2.80828	0.653207
 2.81228	0.653596
 2.81628	0.653984
 2.82028	0.654371
 2.82428	0.654759
 2.82828	0.655146
 2.83228	0.655533
 2.83628	0.65592
 2.84028	0.656307
 2.84428	0.656694
 2.84828	0.65708
 2.85229	0.657466
 2.85629	0.657852
 2.86029	0.658238
 2.86429	0.658624
 2.86829	0.659009
 2.87229	0.659394
 2.87629	0.65978
 2.88029	0.660164
 2.88429	0.660549
 2.88829	0.660933
 2.89229	0.661318
 2.89629	0.661702
 2.90029	0.662085
 2.90429	0.662469
 2.90829	0.662853
 2.91229	0.663236
 2.91629	0.663619
 2.92029	0.664002
 2.92429	0.664384
 2.92829	0.664767
 2.93229	0.665149
 2.93629	0.665531
 2.94029	0.665913
 2.94429	0.666295
 2.94829	0.666676
 2.9523	0.667057
 2.9563	0.667438
 2.9603	0.667819
 2.9643	0.6682
 2.9683	0.66858
 2.9723	0.668961
 2.9763	0.669341
 2.9803	0.669721
 2.9843	0.6701
 2.9883	0.67048
 2.9923	0.670859
 2.9963	0.671238
 3.0003	0.671614
 3.0043	0.671949
 3.0083	0.672285
 3.0123	0.67262
 3.0163	0.672955
 3.0203	0.67329
 3.0243	0.673625
 3.0283	0.673959
 3.0323	0.674293
 3.0363	0.674627
 3.0403	0.674961
 3.0443	0.675295
 3.0483	0.675628
 3.05231	0.675961
 3.05631	0.676294
 3.06031	0.676626
 3.06431	0.676958
 3.06831	0.67729
 3.07231	0.677622
 3.07631	0.677954
 3.08031	0.678285
 3.08431	0.678616
 3.08831	0.678947
 3.09231	0.679278
 3.09631	0.679609
 3.10031	0.679939
 3.10431	0.680269
 3.10831	0.680599
 3.11231	0.680928
 3.11631	0.681257
 3.12031	0.681587
 3.12431	0.681915
 3.12831	0.682244
 3.13231	0.682572
 3.13631	0.682901
 3.14031	0.683228
 3.14431	0.683556
 3.14831	0.683884
 3.15232	0.684211
 3.15632	0.684538
 3.16032	0.684865
 3.16432	0.685191
 3.16832	0.685517
 3.17232	0.685844
 3.17632	0.686169
 3.18032	0.686495
 3.18432	0.68682
 3.18832	0.687146
 3.19232	0.687471
 3.19632	0.687795
 3.20032	0.68812
 3.20432	0.688444
 3.20832	0.688768
 3.21232	0.689092
 3.21632	0.689415
 3.22032	0.689739
 3.22432	0.690062
 3.22832	0.690385
 3.23232	0.690707
 3.23632	0.69103
 3.24032	0.691352
 3.24432	0.691674
 3.24832	0.691995
 3.25233	0.692317
 3.25633	0.692638
 3.26033	0.692959
 3.26433	0.69328
 3.26833	0.6936
 3.27233	0.693921
 3.27633	0.694241
 3.28033	0.694561
 3.28433	0.69488
 3.28833	0.6952
 3.29233	0.695519
 3.29633	0.695838
 3.30033	0.696157
 3.30433	0.696475
 3.30833	0.696793
 3.31233	0.697111
 3.31633	0.697429
 3.32033	0.697747
 3.32433	0.698064
 3.32833	0.698381
 3.33233	0.698698
 3.33633	0.699015
 3.34033	0.699331
 3.34433	0.699647
 3.34833	0.699963
 3.35234	0.700279
 3.35634	0.700594
 3.36034	0.70091
 3.36434	0.701225
 3.36834	0.70154
 3.37234	0.701854
 3.37634	0.702169
 3.38034	0.702483
 3.38434	0.702797
 3.38834	0.70311
 3.39234	0.703424
 3.39634	0.703737
 3.40034	0.70405
 3.40434	0.704363
 3.40834	0.704675
 3.41234	0.704987
 3.41634	0.705299
 3.42034	0.705611
 3.42434	0.705923
 3.42834	0.706234
 3.43234	0.706545
 3.43634	0.706856
 3.44034	0.707167
 3.44434	0.707478
 3.44834	0.707788
 3.45235	0.708098
 3.45635	0.708408
 3.46035	0.708717
 3.46435	0.709026
 3.46835	0.709336
 3.47235	0.709644
 3.47635	0.709953
 3.48035	0.710262
 3.48435	0.71057
 3.48835	0.710878
 3.49235	0.711185
 3.49635	0.711493
 3.50035	0.711797
 3.50435	0.712065
 3.50835	0.712334
 3.51235	0.712602
 3.51635	0.71287
 3.52035	0.713137
 3.52435	0.713405
 3.52835	0.713672
 3.53235	0.713938
 3.53635	0.714205
 3.54035	0.714471
 3.54435	0.714737
 3.54835	0.715003
 3.55236	0.715269
 3.55636	0.715534
 3.56036	0.715799
 3.56436	0.716064
 3.56836	0.716329
 3.57236	0.716593
 3.57636	0.716857
 3.58036	0.717121
 3.58436	0.717385
 3.58836	0.717648
 3.59236	0.717911
 3.59636	0.718174
 3.60036	0.718436
 3.60436	0.718699
 3.60836	0.718961
 3.61236	0.719223
 3.61636	0.719484
 3.62036	0.719746
 3.62436	0.720007
 3.62836	0.720268
 3.63236	0.720528
 3.63636	0.720789
 3.64036	0.721049
 3.64436	0.721309
 3.64836	0.721569
 3.65237	0.721828
 3.65637	0.722087
 3.66037	0.722346
 3.66437	0.722605
 3.66837	0.722863
 3.67237	0.723121
 3.67637	0.723379
 3.68037	0.723637
 3.68437	0.723894
 3.68837	0.724152
 3.69237	0.724409
 3.69637	0.724665
 3.70037	0.724922
 3.70437	0.725178
 3.70837	0.725434
 3.71237	0.72569
 3.71637	0.725945
 3.72037	0.7262
 3.72437	0.726455
 3.72837	0.72671
 3.73237	0.726965
 3.73637	0.727219
 3.74037	0.727473
 3.74437	0.727727
 3.74837	0.72798
 3.75238	0.728234
 3.75638	0.728487
 3.76038	0.72874
 3.76438	0.728992
 3.76838	0.729245
 3.77238	0.729497
 3.77638	0.729748
 3.78038	0.73
 3.78438	0.730251
 3.78838	0.730503
 3.79238	0.730753
 3.79638	0.731004
 3.80038	0.731255
 3.80438	0.731505
 3.80838	0.731755
 3.81238	0.732004
 3.81638	0.732254
 3.82038	0.732503
 3.82438	0.732752
 3.82838	0.733001
 3.83238	0.733249
 3.83638	0.733497
 3.84038	0.733745
 3.84438	0.733993
 3.84838	0.734241
 3.85239	0.734488
 3.85639	0.734735
 3.86039	0.734982
 3.86439	0.735229
 3.86839	0.735475
 3.87239	0.735721
 3.87639	0.735967
 3.88039	0.736212
 3.88439	0.736458
 3.88839	0.736703
 3.89239	0.736948
 3.89639	0.737193
 3.90039	0.737437
 3.90439	0.737681
 3.90839	0.737925
 3.91239	0.738169
 3.91639	0.738412
 3.92039	0.738656
 3.92439	0.738899
 3.92839	0.739142
 3.93239	0.739384
 3.93639	0.739626
 3.94039	0.739869
 3.94439	0.74011
 3.94839	0.740352
 3.9524	0.740593
 3.9564	0.740835
 3.9604	0.741075
 3.9644	0.741316
 3.9684	0.741557
 3.9724	0.741797
 3.9764	0.742037
 3.9804	0.742276
 3.9844	0.742516
 3.9884	0.742755
 3.9924	0.742994
 3.9964	0.743233
 4.0004	0.74347
 4.0044	0.743688
 4.0084	0.743907
 4.0124	0.744125
 4.0164	0.744343
 4.0204	0.744561
 4.0244	0.744778
 4.0284	0.744995
 4.0324	0.745212
 4.0364	0.745429
 4.0404	0.745645
 4.0444	0.745862
 4.0484	0.746078
 4.05241	0.746293
 4.05641	0.746509
 4.06041	0.746724
 4.06441	0.746939
 4.06841	0.747154
 4.07241	0.747369
 4.07641	0.747583
 4.08041	0.747797
 4.08441	0.748011
 4.08841	0.748225
 4.09241	0.748438
 4.09641	0.748651
 4.10041	0.748864
 4.10441	0.749077
 4.10841	0.749289
 4.11241	0.749501
 4.11641	0.749713
 4.12041	0.749925
 4.12441	0.750136
 4.12841	0.750348
 4.13241	0.750559
 4.13641	0.750769
 4.14041	0.75098
 4.14441	0.75119
 4.14841	0.7514
 4.15242	0.75161
 4.15642	0.75182
 4.16042	0.752029
 4.16442	0.752238
 4.16842	0.752447
 4.17242	0.752656
 4.17642	0.752864
 4.18042	0.753072
 4.18442	0.75328
 4.18842	0.753488
 4.19242	0.753695
 4.19642	0.753903
 4.20042	0.75411
 4.20442	0.754316
 4.20842	0.754523
 4.21242	0.754729
 4.21642	0.754935
 4.22042	0.755141
 4.22442	0.755347
 4.22842	0.755552
 4.23242	0.755757
 4.23642	0.755962
 4.24042	0.756167
 4.24442	0.756371
 4.24842	0.756576
 4.25243	0.75678
 4.25643	0.756983
 4.26043	0.757187
 4.26443	0.75739
 4.26843	0.757593
 4.27243	0.757796
 4.27643	0.757999
 4.28043	0.758201
 4.28443	0.758403
 4.28843	0.758605
 4.29243	0.758807
 4.29643	0.759009
 4.30043	0.75921
 4.30443	0.759411
 4.30843	0.759612
 4.31243	0.759812
 4.31643	0.760013
 4.32043	0.760213
 4.32443	0.760412
 4.32843	0.760612
 4.33243	0.760812
 4.33643	0.761011
 4.34043	0.76121
 4.34443	0.761409
 4.34843	0.761607
 4.35244	0.761805
 4.35644	0.762003
 4.36044	0.762201
 4.36444	0.762399
 4.36844	0.762596
 4.37244	0.762793
 4.37644	0.76299
 4.38044	0.763187
 4.38444	0.763384
 4.38844	0.76358
 4.39244	0.763776
 4.39644	0.763972
 4.40044	0.764167
 4.40444	0.764363
 4.40844	0.764558
 4.41244	0.764753
 4.41644	0.764948
 4.42044	0.765142
 4.42444	0.765336
 4.42844	0.76553
 4.43244	0.765724
 4.43644	0.765918
 4.44044	0.766111
 4.44444	0.766304
 4.44844	0.766497
 4.45245	0.76669
 4.45645	0.766882
 4.46045	0.767075
 4.46445	0.767267
 4.46845	0.767459
 4.47245	0.76765
 4.47645	0.767842
 4.48045	0.768033
 4.48445	0.768224
 4.48845	0.768415
 4.49245	0.768605
 4.49645	0.768795
 4.50045	0.768984
 4.50445	0.769164
 4.50845	0.769344
 4.51245	0.769523
 4.51645	0.769703
 4.52045	0.769882
 4.52445	0.770061
 4.52845	0.770239
 4.53245	0.770417
 4.53645	0.770596
 4.54045	0.770774
 4.54445	0.770951
 4.54845	0.771129
 4.55246	0.771306
 4.55646	0.771483
 4.56046	0.77166
 4.56446	0.771836
 4.56846	0.772013
 4.57246	0.772189
 4.57646	0.772365
 4.58046	0.772541
 4.58446	0.772716
 4.58846	0.772892
 4.59246	0.773067
 4.59646	0.773241
 4.60046	0.773416
 4.60446	0.773591
 4.60846	0.773765
 4.61246	0.773939
 4.61646	0.774113
 4.62046	0.774286
 4.62446	0.77446
 4.62846	0.774633
 4.63246	0.774806
 4.63646	0.774978
 4.64046	0.775151
 4.64446	0.775323
 4.64846	0.775495
 4.65247	0.775667
 4.65647	0.775839
 4.66047	0.77601
 4.66447	0.776181
 4.66847	0.776352
 4.67247	0.776523
 4.67647	0.776694
 4.68047	0.776864
 4.68447	0.777034
 4.68847	0.777204
 4.69247	0.777374
 4.69647	0.777543
 4.70047	0.777713
 4.70447	0.777882
 4.70847	0.778051
 4.71247	0.778219
 4.71647	0.778388
 4.72047	0.778556
 4.72447	0.778724
 4.72847	0.778892
 4.73247	0.77906
 4.73647	0.779227
 4.74047	0.779394
 4.74447	0.779561
 4.74847	0.779728
 4.75248	0.779895
 4.75648	0.780061
 4.76048	0.780227
 4.76448	0.780393
 4.76848	0.780559
 4.77248	0.780724
 4.77648	0.78089
 4.78048	0.781055
 4.78448	0.78122
 4.78848	0.781384
 4.79248	0.781549
 4.79648	0.781713
 4.80048	0.781877
 4.80448	0.782041
 4.80848	0.782205
 4.81248	0.782368
 4.81648	0.782532
 4.82048	0.782695
 4.82448	0.782858
 4.82848	0.78302
 4.83248	0.783183
 4.83648	0.783345
 4.84048	0.783507
 4.84448	0.783669
 4.84848	0.783831
 4.85249	0.783992
 4.85649	0.784153
 4.86049	0.784314
 4.86449	0.784475
 4.86849	0.784636
 4.87249	0.784796
 4.87649	0.784956
 4.88049	0.785116
 4.88449	0.785276
 4.88849	0.785436
 4.89249	0.785595
 4.89649	0.785755
 4.90049	0.785914
 4.90449	0.786072
 4.90849	0.786231
 4.91249	0.78639
 4.91649	0.786548
 4.92049	0.786706
 4.92449	0.786864
 4.92849	0.787021
 4.93249	0.787179
 4.93649	0.787336
 4.94049	0.787493
 4.94449	0.78765
 4.94849	0.787806
 4.9525	0.787963
 4.9565	0.788119
 4.9605	0.788275
 4.9645	0.788431
 4.9685	0.788587
 4.9725	0.788742
 4.9765	0.788897
 4.9805	0.789053
 4.9845	0.789207
 4.9885	0.789362
 4.9925	0.789517
 4.9965	0.789671
 5.0005	0.789823
 5.0045	0.789961
 5.0085	0.790099
 5.0125	0.790237
 5.0165	0.790375
 5.0205	0.790512
 5.0245	0.790649
 5.0285	0.790786
 5.0325	0.790923
 5.0365	0.79106
 5.0405	0.791196
 5.0445	0.791332
 5.0485	0.791468
 5.05251	0.791604
 5.05651	0.79174
 5.06051	0.791875
 5.06451	0.79201
 5.06851	0.792145
 5.07251	0.79228
 5.07651	0.792415
 5.08051	0.792549
 5.08451	0.792684
 5.08851	0.792818
 5.09251	0.792951
 5.09651	0.793085
 5.10051	0.793219
 5.10451	0.793352
 5.10851	0.793485
 5.11251	0.793618
 5.11651	0.793751
 5.12051	0.793883
 5.12451	0.794015
 5.12851	0.794148
 5.13251	0.79428
 5.13651	0.794411
 5.14051	0.794543
 5.14451	0.794674
 5.14851	0.794805
 5.15252	0.794936
 5.15652	0.795067
 5.16052	0.795198
 5.16452	0.795328
 5.16852	0.795458
 5.17252	0.795588
 5.17652	0.795718
 5.18052	0.795848
 5.18452	0.795977
 5.18852	0.796107
 5.19252	0.796236
 5.19652	0.796365
 5.20052	0.796493
 5.20452	0.796622
 5.20852	0.79675
 5.21252	0.796878
 5.21652	0.797006
 5.22052	0.797134
 5.22452	0.797262
 5.22852	0.797389
 5.23252	0.797516
 5.23652	0.797643
 5.24052	0.79777
 5.24452	0.797897
 5.24852	0.798023
 5.25253	0.79815
 5.25653	0.798276
 5.26053	0.798402
 5.26453	0.798528
 5.26853	0.798653
 5.27253	0.798778
 5.27653	0.798904
 5.28053	0.799029
 5.28453	0.799153
 5.28853	0.799278
 5.29253	0.799403
 5.29653	0.799527
 5.30053	0.799651
 5.30453	0.799775
 5.30853	0.799899
 5.31253	0.800022
 5.31653	0.800146
 5.32053	0.800269
 5.32453	0.800392
 5.32853	0.800515
 5.33253	0.800637
 5.33653	0.80076
 5.34053	0.800882
 5.34453	0.801004
 5.34853	0.801126
 5.35254	0.801248
 5.35654	0.801369
 5.36054	0.801491
 5.36454	0.801612
 5.36854	0.801733
 5.37254	0.801854
 5.37654	0.801975
 5.38054	0.802095
 5.38454	0.802215
 5.38854	0.802336
 5.39254	0.802456
 5.39654	0.802575
 5.40054	0.802695
 5.40454	0.802814
 5.40854	0.802934
 5.41254	0.803053
 5.41654	0.803172
 5.42054	0.80329
 5.42454	0.803409
 5.42854	0.803527
 5.43254	0.803646
 5.43654	0.803764
 5.44054	0.803882
 5.44454	0.803999
 5.44854	0.804117
 5.45255	0.804234
 5.45655	0.804351
 5.46055	0.804468
 5.46455	0.804585
 5.46855	0.804702
 5.47255	0.804818
 5.47655	0.804935
 5.48055	0.805051
 5.48455	0.805167
 5.48855	0.805283
 5.49255	0.805398
 5.49655	0.805514
 5.50055	0.805628
 5.50455	0.805737
 5.50855	0.805845
 5.51255	0.805954
 5.51655	0.806062
 5.52055	0.80617
 5.52455	0.806278
 5.52855	0.806386
 5.53255	0.806493
 5.53655	0.8066
 5.54055	0.806708
 5.54455	0.806815
 5.54855	0.806922
 5.55256	0.807028
 5.55656	0.807135
 5.56056	0.807241
 5.56456	0.807347
 5.56856	0.807453
 5.57256	0.807559
 5.57656	0.807665
 5.58056	0.80777
 5.58456	0.807876
 5.58856	0.807981
 5.59256	0.808086
 5.59656	0.808191
 5.60056	0.808295
 5.60456	0.8084
 5.60856	0.808504
 5.61256	0.808608
 5.61656	0.808712
 5.62056	0.808816
 5.62456	0.80892
 5.62856	0.809023
 5.63256	0.809127
 5.63656	0.80923
 5.64056	0.809333
 5.64456	0.809436
 5.64856	0.809539
 5.65257	0.809641
 5.65657	0.809743
 5.66057	0.809846
 5.66457	0.809948
 5.66857	0.81005
 5.67257	0.810151
 5.67657	0.810253
 5.68057	0.810354
 5.68457	0.810455
 5.68857	0.810557
 5.69257	0.810657
 5.69657	0.810758
 5.70057	0.810859
 5.70457	0.810959
 5.70857	0.811059
 5.71257	0.81116
 5.71657	0.81126
 5.72057	0.811359
 5.72457	0.811459
 5.72857	0.811558
 5.73257	0.811658
 5.73657	0.811757
 5.74057	0.811856
 5.74457	0.811955
 5.74857	0.812053
 5.75258	0.812152
 5.75658	0.81225
 5.76058	0.812348
 5.76458	0.812446
 5.76858	0.812544
 5.77258	0.812642
 5.77658	0.81274
 5.78058	0.812837
 5.78458	0.812934
 5.78858	0.813031
 5.79258	0.813128
 5.79658	0.813225
 5.80058	0.813322
 5.80458	0.813418
 5.80858	0.813515
 5.81258	0.813611
 5.81658	0.813707
 5.82058	0.813803
 5.82458	0.813898
 5.82858	0.813994
 5.83258	0.814089
 5.83658	0.814185
 5.84058	0.81428
 5.84458	0.814375
 5.84858	0.81447
 5.85259	0.814564
 5.85659	0.814659
 5.86059	0.814753
 5.86459	0.814847
 5.86859	0.814941
 5.87259	0.815035
 5.87659	0.815129
 5.88059	0.815222
 5.88459	0.815316
 5.88859	0.815409
 5.89259	0.815502
 5.89659	0.815595
 5.90059	0.815688
 5.90459	0.815781
 5.90859	0.815873
 5.91259	0.815966
 5.91659	0.816058
 5.92059	0.81615
 5.92459	0.816242
 5.92859	0.816334
 5.93259	0.816425
 5.93659	0.816517
 5.94059	0.816608
 5.94459	0.816699
 5.94859	0.816791
 5.9526	0.816881
 5.9566	0.816972
 5.9606	0.817063
 5.9646	0.817153
 5.9686	0.817244
 5.9726	0.817334
 5.9766	0.817424
 5.9806	0.817514
 5.9846	0.817603
 5.9886	0.817693
 5.9926	0.817782
 5.9966	0.817872
 6.0006	0.81796
 6.0046	0.818044
 6.0086	0.818128
 6.0126	0.818212
 6.0166	0.818295
 6.0206	0.818378
 6.0246	0.818462
 6.0286	0.818545
 6.0326	0.818628
 6.0366	0.81871
 6.0406	0.818793
 6.0446	0.818875
 6.0486	0.818958
 6.05261	0.81904
 6.05661	0.819122
 6.06061	0.819204
 6.06461	0.819286
 6.06861	0.819367
 6.07261	0.819449
 6.07661	0.81953
 6.08061	0.819611
 6.08461	0.819692
 6.08861	0.819773
 6.09261	0.819854
 6.09661	0.819935
 6.10061	0.820015
 6.10461	0.820096
 6.10861	0.820176
 6.11261	0.820256
 6.11661	0.820336
 6.12061	0.820416
 6.12461	0.820495
 6.12861	0.820575
 6.13261	0.820654
 6.13661	0.820734
 6.14061	0.820813
 6.14461	0.820892
 6.14861	0.820971
 6.15262	0.821049
 6.15662	0.821128
 6.16062	0.821206
 6.16462	0.821285
 6.16862	0.821363
 6.17262	0.821441
 6.17662	0.821519
 6.18062	0.821596
 6.18462	0.821674
 6.18862	0.821751
 6.19262	0.821829
 6.19662	0.821906
 6.20062	0.821983
 6.20462	0.82206
 6.20862	0.822137
 6.21262	0.822214
 6.21662	0.82229
 6.22062	0.822366
 6.22462	0.822443
 6.22862	0.822519
 6.23262	0.822595
 6.23662	0.822671
 6.24062	0.822746
 6.24462	0.822822
 6.24862	0.822898
 6.25263	0.822973
 6.25663	0.823048
 6.26063	0.823123
 6.26463	0.823198
 6.26863	0.823273
 6.27263	0.823348
 6.27663	0.823422
 6.28063	0.823497
 6.28463	0.823571
 6.28863	0.823645
 6.29263	0.823719
 6.29663	0.823793
 6.30063	0.823867
 6.30463	0.82394
 6.30863	0.824014
 6.31263	0.824087
 6.31663	0.824161
 6.32063	0.824234
 6.32463	0.824307
 6.32863	0.82438
 6.33263	0.824452
 6.33663	0.824525
 6.34063	0.824597
 6.34463	0.82467
 6.34863	0.824742
 6.35264	0.824814
 6.35664	0.824886
 6.36064	0.824958
 6.36464	0.82503
 6.36864	0.825101
 6.37264	0.825173
 6.37664	0.825244
 6.38064	0.825315
 6.38464	0.825386
 6.38864	0.825457
 6.39264	0.825528
 6.39664	0.825599
 6.40064	0.82567
 6.40464	0.82574
 6.40864	0.82581
 6.41264	0.825881
 6.41664	0.825951
 6.42064	0.826021
 6.42464	0.82609
 6.42864	0.82616
 6.43264	0.82623
 6.43664	0.826299
 6.44064	0.826369
 6.44464	0.826438
 6.44864	0.826507
 6.45265	0.826576
 6.45665	0.826645
 6.46065	0.826714
 6.46465	0.826782
 6.46865	0.826851
 6.47265	0.826919
 6.47665	0.826987
 6.48065	0.827056
 6.48465	0.827124
 6.48865	0.827191
 6.49265	0.827259
 6.49665	0.827327
 6.50065	0.827394
 6.50465	0.827462
 6.50865	0.827529
 6.51265	0.827596
 6.51665	0.827663
 6.52065	0.82773
 6.52465	0.827797
 6.52865	0.827864
 6.53265	0.827931
 6.53665	0.827997
 6.54065	0.828063
 6.54465	0.82813
 6.54865	0.828196
 6.55266	0.828262
 6.55666	0.828328
 6.56066	0.828393
 6.56466	0.828459
 6.56866	0.828525
 6.57266	0.82859
 6.57666	0.828655
 6.58066	0.82872
 6.58466	0.828786
 6.58866	0.82885
 6.59266	0.828915
 6.59666	0.82898
 6.60066	0.829045
 6.60466	0.829109
 6.60866	0.829174
 6.61266	0.829238
 6.61666	0.829302
 6.62066	0.829366
 6.62466	0.82943
 6.62866	0.829494
 6.63266	0.829557
 6.63666	0.829621
 6.64066	0.829684
 6.64466	0.829748
 6.64866	0.829811
 6.65267	0.829874
 6.65667	0.829937
 6.66067	0.83
 6.66467	0.830063
 6.66867	0.830126
 6.67267	0.830188
 6.67667	0.830251
 6.68067	0.830313
 6.68467	0.830375
 6.68867	0.830437
 6.69267	0.830499
 6.69667	0.830561
 6.70067	0.830623
 6.70467	0.830685
 6.70867	0.830746
 6.71267	0.830808
 6.71667	0.830869
 6.72067	0.83093
 6.72467	0.830992
 6.72867	0.831053
 6.73267	0.831113
 6.73667	0.831174
 6.74067	0.831235
 6.74467	0.831296
 6.74867	0.831356
 6.75268	0.831416
 6.75668	0.831477
 6.76068	0.831537
 6.76468	0.831597
 6.76868	0.831657
 6.77268	0.831717
 6.77668	0.831776
 6.78068	0.831836
 6.78468	0.831896
 6.78868	0.831955
 6.79268	0.832014
 6.79668	0.832073
 6.80068	0.832133
 6.80468	0.832192
 6.80868	0.83225
 6.81268	0.832309
 6.81668	0.832368
 6.82068	0.832426
 6.82468	0.832485
 6.82868	0.832543
 6.83268	0.832601
 6.83668	0.83266
 6.84068	0.832718
 6.84468	0.832776
 6.84868	0.832833
 6.85269	0.832891
 6.85669	0.832949
 6.86069	0.833006
 6.86469	0.833064
 6.86869	0.833121
 6.87269	0.833178
 6.87669	0.833235
 6.88069	0.833292
 6.88469	0.833349
 6.88869	0.833406
 6.89269	0.833463
 6.89669	0.833519
 6.90069	0.833576
 6.90469	0.833632
 6.90869	0.833689
 6.91269	0.833745
 6.91669	0.833801
 6.92069	0.833857
 6.92469	0.833913
 6.92869	0.833969
 6.93269	0.834024
 6.93669	0.83408
 6.94069	0.834135
 6.94469	0.834191
 6.94869	0.834246
 6.9527	0.834301
 6.9567	0.834356
 6.9607	0.834411
 6.9647	0.834466
 6.9687	0.834521
 6.9727	0.834576
 6.9767	0.83463
 6.9807	0.834685
 6.9847	0.834739
 6.9887	0.834794
 6.9927	0.834848
 6.9967	0.834902
 7.0007	0.834955
 7.0047	0.835005
 7.0087	0.835055
 7.0127	0.835105
 7.0167	0.835155
 7.0207	0.835204
 7.0247	0.835254
 7.0287	0.835303
 7.0327	0.835352
 7.0367	0.835402
 7.0407	0.835451
 7.0447	0.8355
 7.0487	0.835549
 7.05271	0.835597
 7.05671	0.835646
 7.06071	0.835695
 7.06471	0.835743
 7.06871	0.835792
 7.07271	0.83584
 7.07671	0.835888
 7.08071	0.835937
 7.08471	0.835985
 7.08871	0.836033
 7.09271	0.836081
 7.09671	0.836128
 7.10071	0.836176
 7.10471	0.836224
 7.10871	0.836271
 7.11271	0.836319
 7.11671	0.836366
 7.12071	0.836413
 7.12471	0.83646
 7.12871	0.836507
 7.13271	0.836554
 7.13671	0.836601
 7.14071	0.836648
 7.14471	0.836694
 7.14871	0.836741
 7.15272	0.836788
 7.15672	0.836834
 7.16072	0.83688
 7.16472	0.836926
 7.16872	0.836973
 7.17272	0.837019
 7.17672	0.837065
 7.18072	0.83711
 7.18472	0.837156
 7.18872	0.837202
 7.19272	0.837247
 7.19672	0.837293
 7.20072	0.837338
 7.20472	0.837384
 7.20872	0.837429
 7.21272	0.837474
 7.21672	0.837519
 7.22072	0.837564
 7.22472	0.837609
 7.22872	0.837654
 7.23272	0.837698
 7.23672	0.837743
 7.24072	0.837788
 7.24472	0.837832
 7.24872	0.837876
 7.25273	0.837921
 7.25673	0.837965
 7.26073	0.838009
 7.26473	0.838053
 7.26873	0.838097
 7.27273	0.83814
 7.27673	0.838184
 7.28073	0.838228
 7.28473	0.838271
 7.28873	0.838315
 7.29273	0.838358
 7.29673	0.838402
 7.30073	0.838445
 7.30473	0.838488
 7.30873	0.838531
 7.31273	0.838574
 7.31673	0.838617
 7.32073	0.83866
 7.32473	0.838702
 7.32873	0.838745
 7.33273	0.838787
 7.33673	0.83883
 7.34073	0.838872
 7.34473	0.838915
 7.34873	0.838957
 7.35274	0.838999
 7.35674	0.839041
 7.36074	0.839083
 7.36474	0.839125
 7.36874	0.839166
 7.37274	0.839208
 7.37674	0.83925
 7.38074	0.839291
 7.38474	0.839333
 7.38874	0.839374
 7.39274	0.839415
 7.39674	0.839457
 7.40074	0.839498
 7.40474	0.839539
 7.40874	0.83958
 7.41274	0.839621
 7.41674	0.839661
 7.42074	0.839702
 7.42474	0.839743
 7.42874	0.839783
 7.43274	0.839824
 7.43674	0.839864
 7.44074	0.839904
 7.44474	0.839945
 7.44874	0.839985
 7.45275	0.840025
 7.45675	0.840065
 7.46075	0.840105
 7.46475	0.840145
 7.46875	0.840184
 7.47275	0.840224
 7.47675	0.840264
 7.48075	0.840303
 7.48475	0.840343
 7.48875	0.840382
 7.49275	0.840421
 7.49675	0.84046
 7.50075	0.840499
 7.50475	0.840539
 7.50875	0.840577
 7.51275	0.840616
 7.51675	0.840655
 7.52075	0.840694
 7.52475	0.840733
 7.52875	0.840771
 7.53275	0.84081
 7.53675	0.840848
 7.54075	0.840886
 7.54475	0.840925
 7.54875	0.840963
 7.55276	0.841001
 7.55676	0.841039
 7.56076	0.841077
 7.56476	0.841115
 7.56876	0.841153
 7.57276	0.84119
 7.57676	0.841228
 7.58076	0.841266
 7.58476	0.841303
 7.58876	0.841341
 7.59276	0.841378
 7.59676	0.841415
 7.60076	0.841452
 7.60476	0.841489
 7.60876	0.841527
 7.61276	0.841564
 7.61676	0.8416
 7.62076	0.841637
 7.62476	0.841674
 7.62876	0.841711
 7.63276	0.841747
 7.63676	0.841784
 7.64076	0.84182
 7.64476	0.841857
 7.64876	0.841893
 7.65277	0.841929
 7.65677	0.841965
 7.66077	0.842002
 7.66477	0.842038
 7.66877	0.842073
 7.67277	0.842109
 7.67677	0.842145
 7.68077	0.842181
 7.68477	0.842217
 7.68877	0.842252
 7.69277	0.842288
 7.69677	0.842323
 7.70077	0.842359
 7.70477	0.842394
 7.70877	0.842429
 7.71277	0.842464
 7.71677	0.842499
 7.72077	0.842534
 7.72477	0.842569
 7.72877	0.842604
 7.73277	0.842639
 7.73677	0.842674
 7.74077	0.842708
 7.74477	0.842743
 7.74877	0.842778
 7.75278	0.842812
 7.75678	0.842846
 7.76078	0.842881
 7.76478	0.842915
 7.76878	0.842949
 7.77278	0.842983
 7.77678	0.843017
 7.78078	0.843051
 7.78478	0.843085
 7.78878	0.843119
 7.79278	0.843153
 7.79678	0.843186
 7.80078	0.84322
 7.80478	0.843254
 7.80878	0.843287
 7.81278	0.843321
 7.81678	0.843354
 7.82078	0.843387
 7.82478	0.84342
 7.82878	0.843454
 7.83278	0.843487
 7.83678	0.84352
 7.84078	0.843553
 7.84478	0.843586
 7.84878	0.843618
 7.85279	0.843651
 7.85679	0.843684
 7.86079	0.843716
 7.86479	0.843749
 7.86879	0.843782
 7.87279	0.843814
 7.87679	0.843846
 7.88079	0.843879
 7.88479	0.843911
 7.88879	0.843943
 7.89279	0.843975
 7.89679	0.844007
 7.90079	0.844039
 7.90479	0.844071
 7.90879	0.844103
 7.91279	0.844135
 7.91679	0.844166
 7.92079	0.844198
 7.92479	0.84423
 7.92879	0.844261
 7.93279	0.844293
 7.93679	0.844324
 7.94079	0.844355
 7.94479	0.844387
 7.94879	0.844418
 7.9528	0.844449
 7.9568	0.84448
 7.9608	0.844511
 7.9648	0.844542
 7.9688	0.844573
 7.9728	0.844604
 7.9768	0.844634
 7.9808	0.844665
 7.9848	0.844696
 7.9888	0.844726
 7.9928	0.844757
 7.9968	0.844787
 8.0008	0.844817
 8.0048	0.844847
 8.0088	0.844876
 8.0128	0.844906
 8.0168	0.844935
 8.0208	0.844964
 8.0248	0.844993
 8.0288	0.845022
 8.0328	0.845051
 8.0368	0.84508
 8.0408	0.845109
 8.0448	0.845138
 8.0488	0.845167
 8.05281	0.845195
 8.05681	0.845224
 8.06081	0.845253
 8.06481	0.845281
 8.06881	0.84531
 8.07281	0.845338
 8.07681	0.845366
 8.08081	0.845395
 8.08481	0.845423
 8.08881	0.845451
 8.09281	0.845479
 8.09681	0.845507
 8.10081	0.845535
 8.10481	0.845563
 8.10881	0.845591
 8.11281	0.845619
 8.11681	0.845647
 8.12081	0.845674
 8.12481	0.845702
 8.12881	0.84573
 8.13281	0.845757
 8.13681	0.845785
 8.14081	0.845812
 8.14481	0.845839
 8.14881	0.845867
 8.15282	0.845894
 8.15682	0.845921
 8.16082	0.845948
 8.16482	0.845975
 8.16882	0.846002
 8.17282	0.846029
 8.17682	0.846056
 8.18082	0.846083
 8.18482	0.84611
 8.18882	0.846136
 8.19282	0.846163
 8.19682	0.84619
 8.20082	0.846216
 8.20482	0.846243
 8.20882	0.846269
 8.21282	0.846295
 8.21682	0.846322
 8.22082	0.846348
 8.22482	0.846374
 8.22882	0.8464
 8.23282	0.846427
 8.23682	0.846453
 8.24082	0.846479
 8.24482	0.846505
 8.24882	0.84653
 8.25283	0.846556
 8.25683	0.846582
 8.26083	0.846608
 8.26483	0.846633
 8.26883	0.846659
 8.27283	0.846685
 8.27683	0.84671
 8.28083	0.846736
 8.28483	0.846761
 8.28883	0.846786
 8.29283	0.846812
 8.29683	0.846837
 8.30083	0.846862
 8.30483	0.846887
 8.30883	0.846912
 8.31283	0.846937
 8.31683	0.846962
 8.32083	0.846987
 8.32483	0.847012
 8.32883	0.847037
 8.33283	0.847061
 8.33683	0.847086
 8.34083	0.847111
 8.34483	0.847135
 8.34883	0.84716
 8.35284	0.847184
 8.35684	0.847209
 8.36084	0.847233
 8.36484	0.847258
 8.36884	0.847282
 8.37284	0.847306
 8.37684	0.84733
 8.38084	0.847354
 8.38484	0.847378
 8.38884	0.847402
 8.39284	0.847426
 8.39684	0.84745
 8.40084	0.847474
 8.40484	0.847498
 8.40884	0.847522
 8.41284	0.847546
 8.41684	0.847569
 8.42084	0.847593
 8.42484	0.847616
 8.42884	0.84764
 8.43284	0.847663
 8.43684	0.847687
 8.44084	0.84771
 8.44484	0.847733
 8.44884	0.847757
 8.45285	0.84778
 8.45685	0.847803
 8.46085	0.847826
 8.46485	0.847849
 8.46885	0.847872
 8.47285	0.847895
 8.47685	0.847918
 8.48085	0.847941
 8.48485	0.847964
 8.48885	0.847987
 8.49285	0.848009
 8.49685	0.848032
 8.50085	0.848055
 8.50485	0.848077
 8.50885	0.8481
 8.51285	0.848122
 8.51685	0.848145
 8.52085	0.848167
 8.52485	0.848189
 8.52885	0.848212
 8.53285	0.848234
 8.53685	0.848256
 8.54085	0.848278
 8.54485	0.8483
 8.54885	0.848322
 8.55286	0.848344
 8.55686	0.848366
 8.56086	0.848388
 8.56486	0.84841
 8.56886	0.848432
 8.57286	0.848454
 8.57686	0.848475
 8.58086	0.848497
 8.58486	0.848519
 8.58886	0.84854
 8.59286	0.848562
 8.59686	0.848583
 8.60086	0.848605
 8.60486	0.848626
 8.60886	0.848648
 8.61286	0.848669
 8.61686	0.84869
 8.62086	0.848711
 8.62486	0.848733
 8.62886	0.848754
 8.63286	0.848775
 8.63686	0.848796
 8.64086	0.848817
 8.64486	0.848838
 8.64886	0.848859
 8.65287	0.848879
 8.65687	0.8489
 8.66087	0.848921
 8.66487	0.848942
 8.66887	0.848962
 8.67287	0.848983
 8.67687	0.849004
 8.68087	0.849024
 8.68487	0.849045
 8.68887	0.849065
 8.69287	0.849085
 8.69687	0.849106
 8.70087	0.849126
 8.70487	0.849146
 8.70887	0.849167
 8.71287	0.849187
 8.71687	0.849207
 8.72087	0.849227
 8.72487	0.849247
 8.72887	0.849267
 8.73287	0.849287
 8.73687	0.849307
 8.74087	0.849327
 8.74487	0.849347
 8.74887	0.849367
 8.75288	0.849386
 8.75688	0.849406
 8.76088	0.849426
 8.76488	0.849445
 8.76888	0.849465
 8.77288	0.849484
 8.77688	0.849504
 8.78088	0.849523
 8.78488	0.849543
 8.78888	0.849562
 8.79288	0.849582
 8.79688	0.849601
 8.80088	0.84962
 8.80488	0.849639
 8.80888	0.849658
 8.81288	0.849678
 8.81688	0.849697
 8.82088	0.849716
 8.82488	0.849735
 8.82888	0.849754
 8.83288	0.849773
 8.83688	0.849791
 8.84088	0.84981
 8.84488	0.849829
 8.84888	0.849848
 8.85289	0.849867
 8.85689	0.849885
 8.86089	0.849904
 8.86489	0.849922
 8.86889	0.849941
 8.87289	0.849959
 8.87689	0.849978
 8.88089	0.849996
 8.88489	0.850015
 8.88889	0.850033
 8.89289	0.850051
 8.89689	0.85007
 8.90089	0.850088
 8.90489	0.850106
 8.90889	0.850124
 8.91289	0.850142
 8.91689	0.85016
 8.92089	0.850179
 8.92489	0.850197
 8.92889	0.850214
 8.93289	0.850232
 8.93689	0.85025
 8.94089	0.850268
 8.94489	0.850286
 8.94889	0.850304
 8.9529	0.850321
 8.9569	0.850339
 8.9609	0.850357
 8.9649	0.850374
 8.9689	0.850392
 8.9729	0.850409
 8.9769	0.850427
 8.9809	0.850444
 8.9849	0.850462
 8.9889	0.850479
 8.9929	0.850497
 8.9969	0.850514
 9.0009	0.850531
 9.0049	0.850548
 9.0089	0.850565
 9.0129	0.850582
 9.0169	0.850598
 9.0209	0.850615
 9.0249	0.850632
 9.0289	0.850649
 9.0329	0.850665
 9.0369	0.850682
 9.0409	0.850698
 9.0449	0.850715
 9.0489	0.850732
 9.05291	0.850748
 9.05691	0.850764
 9.06091	0.850781
 9.06491	0.850797
 9.06891	0.850813
 9.07291	0.85083
 9.07691	0.850846
 9.08091	0.850862
 9.08491	0.850878
 9.08891	0.850895
 9.09291	0.850911
 9.09691	0.850927
 9.10091	0.850943
 9.10491	0.850959
 9.10891	0.850975
 9.11291	0.850991
 9.11691	0.851007
 9.12091	0.851022
 9.12491	0.851038
 9.12891	0.851054
 9.13291	0.85107
 9.13691	0.851085
 9.14091	0.851101
 9.14491	0.851117
 9.14891	0.851132
 9.15292	0.851148
 9.15692	0.851163
 9.16092	0.851179
 9.16492	0.851194
 9.16892	0.85121
 9.17292	0.851225
 9.17692	0.851241
 9.18092	0.851256
 9.18492	0.851271
 9.18892	0.851287
 9.19292	0.851302
 9.19692	0.851317
 9.20092	0.851332
 9.20492	0.851347
 9.20892	0.851362
 9.21292	0.851377
 9.21692	0.851392
 9.22092	0.851407
 9.22492	0.851422
 9.22892	0.851437
 9.23292	0.851452
 9.23692	0.851467
 9.24092	0.851482
 9.24492	0.851497
 9.24892	0.851512
 9.25293	0.851526
 9.25693	0.851541
 9.26093	0.851556
 9.26493	0.85157
 9.26893	0.851585
 9.27293	0.851599
 9.27693	0.851614
 9.28093	0.851628
 9.28493	0.851643
 9.28893	0.851657
 9.29293	0.851672
 9.29693	0.851686
 9.30093	0.8517
 9.30493	0.851715
 9.30893	0.851729
 9.31293	0.851743
 9.31693	0.851757
 9.32093	0.851772
 9.32493	0.851786
 9.32893	0.8518
 9.33293	0.851814
 9.33693	0.851828
 9.34093	0.851842
 9.34493	0.851856
 9.34893	0.85187
 9.35294	0.851884
 9.35694	0.851898
 9.36094	0.851912
 9.36494	0.851926
 9.36894	0.851939
 9.37294	0.851953
 9.37694	0.851967
 9.38094	0.851981
 9.38494	0.851994
 9.38894	0.852008
 9.39294	0.852022
 9.39694	0.852035
 9.40094	0.852049
 9.40494	0.852062
 9.40894	0.852076
 9.41294	0.852089
 9.41694	0.852103
 9.42094	0.852116
 9.42494	0.852129
 9.42894	0.852143
 9.43294	0.852156
 9.43694	0.852169
 9.44094	0.852183
 9.44494	0.852196
 9.44894	0.852209
 9.45295	0.852222
 9.45695	0.852235
 9.46095	0.852248
 9.46495	0.852262
 9.46895	0.852275
 9.47295	0.852288
 9.47695	0.852301
 9.48095	0.852314
 9.48495	0.852326
 9.48895	0.852339
 9.49295	0.852352
 9.49695	0.852365
 9.50095	0.852378
 9.50495	0.852391
 9.50895	0.852403
 9.51295	0.852416
 9.51695	0.852429
 9.52095	0.852442
 9.52495	0.852454
 9.52895	0.852467
 9.53295	0.852479
 9.53695	0.852492
 9.54095	0.852505
 9.54495	0.852517
 9.54895	0.85253
 9.55296	0.852542
 9.55696	0.852554
 9.56096	0.852567
 9.56496	0.852579
 9.56896	0.852591
 9.57296	0.852604
 9.57696	0.852616
 9.58096	0.852628
 9.58496	0.852641
 9.58896	0.852653
 9.59296	0.852665
 9.59696	0.852677
 9.60096	0.852689
 9.60496	0.852701
 9.60896	0.852713
 9.61296	0.852725
 9.61696	0.852737
 9.62096	0.852749
 9.62496	0.852761
 9.62896	0.852773
 9.63296	0.852785
 9.63696	0.852797
 9.64096	0.852809
 9.64496	0.852821
 9.64896	0.852832
 9.65297	0.852844
 9.65697	0.852856
 9.66097	0.852868
 9.66497	0.852879
 9.66897	0.852891
 9.67297	0.852903
 9.67697	0.852914
 9.68097	0.852926
 9.68497	0.852937
 9.68897	0.852949
 9.69297	0.85296
 9.69697	0.852972
 9.70097	0.852983
 9.70497	0.852995
 9.70897	0.853006
 9.71297	0.853018
 9.71697	0.853029
 9.72097	0.85304
 9.72497	0.853052
 9.72897	0.853063
 9.73297	0.853074
 9.73697	0.853085
 9.74097	0.853096
 9.74497	0.853108
 9.74897	0.853119
 9.75298	0.85313
 9.75698	0.853141
 9.76098	0.853152
 9.76498	0.853163
 9.76898	0.853174
 9.77298	0.853185
 9.77698	0.853196
 9.78098	0.853207
 9.78498	0.853218
 9.78898	0.853229
 9.79298	0.85324
 9.79698	0.853251
 9.80098	0.853261
 9.80498	0.853272
 9.80898	0.853283
 9.81298	0.853294
 9.81698	0.853304
 9.82098	0.853315
 9.82498	0.853326
 9.82898	0.853336
 9.83298	0.853347
 9.83698	0.853358
 9.84098	0.853368
 9.84498	0.853379
 9.84898	0.853389
 9.85299	0.8534
 9.85699	0.85341
 9.86099	0.853421
 9.86499	0.853431
 9.86899	0.853442
 9.87299	0.853452
 9.87699	0.853462
 9.88099	0.853473
 9.88499	0.853483
 9.88899	0.853493
 9.89299	0.853504
 9.89699	0.853514
 9.90099	0.853524
 9.90499	0.853534
 9.90899	0.853544
 9.91299	0.853555
 9.91699	0.853565
 9.92099	0.853575
 9.92499	0.853585
 9.92899	0.853595
 9.93299	0.853605
 9.93699	0.853615
 9.94099	0.853625
 9.94499	0.853635
 9.94899	0.853645
 9.953	0.853655
 9.957	0.853665
 9.961	0.853675
 9.965	0.853685
 9.969	0.853694
 9.973	0.853704
 9.977	0.853714
 9.981	0.853724
 9.985	0.853734
 9.989	0.853743
 9.993	0.853753
 9.997	0.853763
 10.001	0.853772
 10.005	0.853782
 10.009	0.853792
 10.013	0.853801
 10.017	0.853811
 10.021	0.85382
 10.025	0.85383
 10.029	0.853839
 10.033	0.853849
 10.037	0.853858
 10.041	0.853868
 10.045	0.853877
 10.049	0.853887
 10.053	0.853896
 10.057	0.853905
 10.061	0.853915
 10.065	0.853924
 10.069	0.853933
 10.073	0.853943
 10.077	0.853952
 10.081	0.853961
 10.085	0.85397
 10.089	0.85398
 10.093	0.853989
 10.097	0.853998
 10.101	0.854007
 10.105	0.854016
 10.109	0.854025
 10.113	0.854034
 10.117	0.854043
 10.121	0.854052
 10.125	0.854061
 10.129	0.85407
 10.133	0.854079
 10.137	0.854088
 10.141	0.854097
 10.145	0.854106
 10.149	0.854115
 10.153	0.854124
 10.157	0.854133
 10.161	0.854141
 10.165	0.85415
 10.169	0.854159
 10.173	0.854168
 10.177	0.854177
 10.181	0.854185
 10.185	0.854194
 10.189	0.854203
 10.193	0.854211
 10.197	0.85422
 10.201	0.854229
 10.205	0.854237
 10.209	0.854246
 10.213	0.854254
 10.217	0.854263
 10.221	0.854271
 10.225	0.85428
 10.229	0.854288
 10.233	0.854297
 10.237	0.854305
 10.241	0.854314
 10.245	0.854322
 10.249	0.854331
 10.253	0.854339
 10.257	0.854347
 10.261	0.854356
 10.265	0.854364
 10.269	0.854372
 10.273	0.854381
 10.277	0.854389
 10.281	0.854397
 10.285	0.854405
 10.289	0.854414
 10.293	0.854422
 10.297	0.85443
 10.301	0.854438
 10.305	0.854446
 10.309	0.854454
 10.313	0.854462
 10.317	0.85447
 10.321	0.854479
 10.325	0.854487
 10.329	0.854495
 10.333	0.854503
 10.337	0.854511
 10.341	0.854519
 10.345	0.854527
 10.349	0.854534
 10.353	0.854542
 10.357	0.85455
 10.361	0.854558
 10.365	0.854566
 10.369	0.854574
 10.373	0.854582
 10.377	0.854589
 10.381	0.854597
 10.385	0.854605
 10.389	0.854613
 10.393	0.854621
 10.397	0.854628
 10.401	0.854636
 10.405	0.854644
 10.409	0.854651
 10.413	0.854659
 10.417	0.854667
 10.421	0.854674
 10.425	0.854682
 10.429	0.854689
 10.433	0.854697
 10.437	0.854704
 10.441	0.854712
 10.445	0.85472
 10.449	0.854727
 10.453	0.854734
 10.457	0.854742
 10.461	0.854749
 10.465	0.854757
 10.469	0.854764
 10.473	0.854772
 10.477	0.854779
 10.481	0.854786
 10.485	0.854794
 10.489	0.854801
 10.493	0.854808
 10.497	0.854816
 10.5011	0.854823
 10.5051	0.85483
 10.5091	0.854837
 10.5131	0.854845
 10.5171	0.854852
 10.5211	0.854859
 10.5251	0.854866
 10.5291	0.854873
 10.5331	0.854881
 10.5371	0.854888
 10.5411	0.854895
 10.5451	0.854902
 10.5491	0.854909
 10.5531	0.854916
 10.5571	0.854923
 10.5611	0.85493
 10.5651	0.854937
 10.5691	0.854944
 10.5731	0.854951
 10.5771	0.854958
 10.5811	0.854965
 10.5851	0.854972
 10.5891	0.854979
 10.5931	0.854986
 10.5971	0.854993
 10.6011	0.855
 10.6051	0.855006
 10.6091	0.855013
 10.6131	0.85502
 10.6171	0.855027
 10.6211	0.855034
 10.6251	0.85504
 10.6291	0.855047
 10.6331	0.855054
 10.6371	0.855061
 10.6411	0.855067
 10.6451	0.855074
 10.6491	0.855081
 10.6531	0.855087
 10.6571	0.855094
 10.6611	0.855101
 10.6651	0.855107
 10.6691	0.855114
 10.6731	0.855121
 10.6771	0.855127
 10.6811	0.855134
 10.6851	0.85514
 10.6891	0.855147
 10.6931	0.855153
 10.6971	0.85516
 10.7011	0.855166
 10.7051	0.855173
 10.7091	0.855179
 10.7131	0.855186
 10.7171	0.855192
 10.7211	0.855199
 10.7251	0.855205
 10.7291	0.855211
 10.7331	0.855218
 10.7371	0.855224
 10.7411	0.855231
 10.7451	0.855237
 10.7491	0.855243
 10.7531	0.85525
 10.7571	0.855256
 10.7611	0.855262
 10.7651	0.855268
 10.7691	0.855275
 10.7731	0.855281
 10.7771	0.855287
 10.7811	0.855293
 10.7851	0.8553
 10.7891	0.855306
 10.7931	0.855312
 10.7971	0.855318
 10.8011	0.855324
 10.8051	0.85533
 10.8091	0.855336
 10.8131	0.855342
 10.8171	0.855349
 10.8211	0.855355
 10.8251	0.855361
 10.8291	0.855367
 10.8331	0.855373
 10.8371	0.855379
 10.8411	0.855385
 10.8451	0.855391
 10.8491	0.855397
 10.8531	0.855403
 10.8571	0.855409
 10.8611	0.855415
 10.8651	0.85542
 10.8691	0.855426
 10.8731	0.855432
 10.8771	0.855438
 10.8811	0.855444
 10.8851	0.85545
 10.8891	0.855456
 10.8931	0.855462
 10.8971	0.855467
 10.9011	0.855473
 10.9051	0.855479
 10.9091	0.855485
 10.9131	0.855491
 10.9171	0.855496
 10.9211	0.855502
 10.9251	0.855508
 10.9291	0.855513
 10.9331	0.855519
 10.9371	0.855525
 10.9411	0.85553
 10.9451	0.855536
 10.9491	0.855542
 10.9531	0.855547
 10.9571	0.855553
 10.9611	0.855559
 10.9651	0.855564
 10.9691	0.85557
 10.9731	0.855575
 10.9771	0.855581
 10.9811	0.855587
 10.9851	0.855592
 10.9891	0.855598
 10.9931	0.855603
 10.9971	0.855609
 11.0011	0.855614
 11.0051	0.85562
 11.0091	0.855625
 11.0131	0.855631
 11.0171	0.855636
 11.0211	0.855642
 11.0251	0.855647
 11.0291	0.855653
 11.0331	0.855658
 11.0371	0.855664
 11.0411	0.855669
 11.0451	0.855674
 11.0491	0.85568
 11.0531	0.855685
 11.0571	0.855691
 11.0611	0.855696
 11.0651	0.855701
 11.0691	0.855707
 11.0731	0.855712
 11.0771	0.855717
 11.0811	0.855723
 11.0851	0.855728
 11.0891	0.855733
 11.0931	0.855739
 11.0971	0.855744
 11.1011	0.855749
 11.1051	0.855755
 11.1091	0.85576
 11.1131	0.855765
 11.1171	0.85577
 11.1211	0.855775
 11.1251	0.855781
 11.1291	0.855786
 11.1331	0.855791
 11.1371	0.855796
 11.1411	0.855801
 11.1451	0.855806
 11.1491	0.855812
 11.1531	0.855817
 11.1571	0.855822
 11.1611	0.855827
 11.1651	0.855832
 11.1691	0.855837
 11.1731	0.855842
 11.1771	0.855847
 11.1811	0.855852
 11.1851	0.855857
 11.1891	0.855862
 11.1931	0.855867
 11.1971	0.855872
 11.2011	0.855877
 11.2051	0.855882
 11.2091	0.855887
 11.2131	0.855892
 11.2171	0.855897
 11.2211	0.855902
 11.2251	0.855907
 11.2291	0.855912
 11.2331	0.855917
 11.2371	0.855922
 11.2411	0.855926
 11.2451	0.855931
 11.2491	0.855936
 11.2531	0.855941
 11.2571	0.855946
 11.2611	0.855951
 11.2651	0.855955
 11.2691	0.85596
 11.2731	0.855965
 11.2771	0.85597
 11.2811	0.855975
 11.2851	0.855979
 11.2891	0.855984
 11.2931	0.855989
 11.2971	0.855994
 11.3011	0.855998
 11.3051	0.856003
 11.3091	0.856008
 11.3131	0.856012
 11.3171	0.856017
 11.3211	0.856022
 11.3251	0.856026
 11.3291	0.856031
 11.3331	0.856036
 11.3371	0.85604
 11.3411	0.856045
 11.3451	0.856049
 11.3491	0.856054
 11.3531	0.856059
 11.3571	0.856063
 11.3611	0.856068
 11.3651	0.856072
 11.3691	0.856077
 11.3731	0.856081
 11.3771	0.856086
 11.3811	0.85609
 11.3851	0.856095
 11.3891	0.856099
 11.3931	0.856104
 11.3971	0.856108
 11.4011	0.856113
 11.4051	0.856117
 11.4091	0.856122
 11.4131	0.856126
 11.4171	0.856131
 11.4211	0.856135
 11.4251	0.856139
 11.4291	0.856144
 11.4331	0.856148
 11.4371	0.856153
 11.4411	0.856157
 11.4451	0.856161
 11.4491	0.856166
 11.4531	0.85617
 11.4571	0.856174
 11.4611	0.856179
 11.4651	0.856183
 11.4691	0.856187
 11.4731	0.856192
 11.4771	0.856196
 11.4811	0.8562
 11.4851	0.856204
 11.4891	0.856209
 11.4931	0.856213
 11.4971	0.856217
 11.5012	0.856221
 11.5052	0.856226
 11.5092	0.85623
 11.5132	0.856234
 11.5172	0.856238
 11.5212	0.856242
 11.5252	0.856247
 11.5292	0.856251
 11.5332	0.856255
 11.5372	0.856259
 11.5412	0.856263
 11.5452	0.856267
 11.5492	0.856271
 11.5532	0.856276
 11.5572	0.85628
 11.5612	0.856284
 11.5652	0.856288
 11.5692	0.856292
 11.5732	0.856296
 11.5772	0.8563
 11.5812	0.856304
 11.5852	0.856308
 11.5892	0.856312
 11.5932	0.856316
 11.5972	0.85632
 11.6012	0.856324
 11.6052	0.856328
 11.6092	0.856332
 11.6132	0.856336
 11.6172	0.85634
 11.6212	0.856344
 11.6252	0.856348
 11.6292	0.856352
 11.6332	0.856356
 11.6372	0.85636
 11.6412	0.856364
 11.6452	0.856368
 11.6492	0.856372
 11.6532	0.856376
 11.6572	0.856379
 11.6612	0.856383
 11.6652	0.856387
 11.6692	0.856391
 11.6732	0.856395
 11.6772	0.856399
 11.6812	0.856403
 11.6852	0.856406
 11.6892	0.85641
 11.6932	0.856414
 11.6972	0.856418
 11.7012	0.856422
 11.7052	0.856425
 11.7092	0.856429
 11.7132	0.856433
 11.7172	0.856437
 11.7212	0.856441
 11.7252	0.856444
 11.7292	0.856448
 11.7332	0.856452
 11.7372	0.856455
 11.7412	0.856459
 11.7452	0.856463
 11.7492	0.856467
 11.7532	0.85647
 11.7572	0.856474
 11.7612	0.856478
 11.7652	0.856481
 11.7692	0.856485
 11.7732	0.856489
 11.7772	0.856492
 11.7812	0.856496
 11.7852	0.8565
 11.7892	0.856503
 11.7932	0.856507
 11.7972	0.85651
 11.8012	0.856514
 11.8052	0.856518
 11.8092	0.856521
 11.8132	0.856525
 11.8172	0.856528
 11.8212	0.856532
 11.8252	0.856535
 11.8292	0.856539
 11.8332	0.856543
 11.8372	0.856546
 11.8412	0.85655
 11.8452	0.856553
 11.8492	0.856557
 11.8532	0.85656
 11.8572	0.856564
 11.8612	0.856567
 11.8652	0.856571
 11.8692	0.856574
 11.8732	0.856578
 11.8772	0.856581
 11.8812	0.856584
 11.8852	0.856588
 11.8892	0.856591
 11.8932	0.856595
 11.8972	0.856598
 11.9012	0.856602
 11.9052	0.856605
 11.9092	0.856608
 11.9132	0.856612
 11.9172	0.856615
 11.9212	0.856619
 11.9252	0.856622
 11.9292	0.856625
 11.9332	0.856629
 11.9372	0.856632
 11.9412	0.856635
 11.9452	0.856639
 11.9492	0.856642
 11.9532	0.856645
 11.9572	0.856649
 11.9612	0.856652
 11.9652	0.856655
 11.9692	0.856659
 11.9732	0.856662
 11.9772	0.856665
 11.9812	0.856668
 11.9852	0.856672
 11.9892	0.856675
 11.9932	0.856678
 11.9972	0.856681
 12.0012	0.856685
 12.0052	0.856688
 12.0092	0.85669
 12.0132	0.856693
 12.0172	0.856696
 12.0212	0.856699
 12.0252	0.856702
 12.0292	0.856705
 12.0332	0.856708
 12.0372	0.856711
 12.0412	0.856713
 12.0452	0.856716
 12.0492	0.856719
 12.0532	0.856722
 12.0572	0.856725
 12.0612	0.856728
 12.0652	0.85673
 12.0692	0.856733
 12.0732	0.856736
 12.0772	0.856739
 12.0812	0.856742
 12.0852	0.856744
 12.0892	0.856747
 12.0932	0.85675
 12.0972	0.856753
 12.1012	0.856755
 12.1052	0.856758
 12.1092	0.856761
 12.1132	0.856764
 12.1172	0.856766
 12.1212	0.856769
 12.1252	0.856772
 12.1292	0.856775
 12.1332	0.856777
 12.1372	0.85678
 12.1412	0.856783
 12.1452	0.856785
 12.1492	0.856788
 12.1532	0.856791
 12.1572	0.856793
 12.1612	0.856796
 12.1652	0.856799
 12.1692	0.856801
 12.1732	0.856804
 12.1772	0.856807
 12.1812	0.856809
 12.1852	0.856812
 12.1892	0.856814
 12.1932	0.856817
 12.1972	0.85682
 12.2012	0.856822
 12.2052	0.856825
 12.2092	0.856827
 12.2132	0.85683
 12.2172	0.856833
 12.2212	0.856835
 12.2252	0.856838
 12.2292	0.85684
 12.2332	0.856843
 12.2372	0.856845
 12.2412	0.856848
 12.2452	0.856851
 12.2492	0.856853
 12.2532	0.856856
 12.2572	0.856858
 12.2612	0.856861
 12.2652	0.856863
 12.2692	0.856866
 12.2732	0.856868
 12.2772	0.856871
 12.2812	0.856873
 12.2852	0.856876
 12.2892	0.856878
 12.2932	0.856881
 12.2972	0.856883
 12.3012	0.856885
 12.3052	0.856888
 12.3092	0.85689
 12.3132	0.856893
 12.3172	0.856895
 12.3212	0.856898
 12.3252	0.8569
 12.3292	0.856902
 12.3332	0.856905
 12.3372	0.856907
 12.3412	0.85691
 12.3452	0.856912
 12.3492	0.856914
 12.3532	0.856917
 12.3572	0.856919
 12.3612	0.856922
 12.3652	0.856924
 12.3692	0.856926
 12.3732	0.856929
 12.3772	0.856931
 12.3812	0.856933
 12.3852	0.856936
 12.3892	0.856938
 12.3932	0.85694
 12.3972	0.856943
 12.4012	0.856945
 12.4052	0.856947
 12.4092	0.85695
 12.4132	0.856952
 12.4172	0.856954
 12.4212	0.856957
 12.4252	0.856959
 12.4292	0.856961
 12.4332	0.856963
 12.4372	0.856966
 12.4412	0.856968
 12.4452	0.85697
 12.4492	0.856973
 12.4532	0.856975
 12.4572	0.856977
 12.4612	0.856979
 12.4652	0.856982
 12.4692	0.856984
 12.4732	0.856986
 12.4772	0.856988
 12.4812	0.85699
 12.4852	0.856993
 12.4892	0.856995
 12.4932	0.856997
 12.4972	0.856999
 12.5013	0.857001
 12.5053	0.857004
 12.5093	0.857006
 12.5133	0.857008
 12.5173	0.85701
 12.5213	0.857012
 12.5253	0.857014
 12.5293	0.857017
 12.5333	0.857019
 12.5373	0.857021
 12.5413	0.857023
 12.5453	0.857025
 12.5493	0.857027
 12.5533	0.857029
 12.5573	0.857032
 12.5613	0.857034
 12.5653	0.857036
 12.5693	0.857038
 12.5733	0.85704
 12.5773	0.857042
 12.5813	0.857044
 12.5853	0.857046
 12.5893	0.857048
 12.5933	0.857051
 12.5973	0.857053
 12.6013	0.857055
 12.6053	0.857057
 12.6093	0.857059
 12.6133	0.857061
 12.6173	0.857063
 12.6213	0.857065
 12.6253	0.857067
 12.6293	0.857069
 12.6333	0.857071
 12.6373	0.857073
 12.6413	0.857075
 12.6453	0.857077
 12.6493	0.857079
 12.6533	0.857081
 12.6573	0.857083
 12.6613	0.857085
 12.6653	0.857087
 12.6693	0.857089
 12.6733	0.857091
 12.6773	0.857093
 12.6813	0.857095
 12.6853	0.857097
 12.6893	0.857099
 12.6933	0.857101
 12.6973	0.857103
 12.7013	0.857105
 12.7053	0.857107
 12.7093	0.857109
 12.7133	0.857111
 12.7173	0.857113
 12.7213	0.857115
 12.7253	0.857117
 12.7293	0.857119
 12.7333	0.857121
 12.7373	0.857122
 12.7413	0.857124
 12.7453	0.857126
 12.7493	0.857128
 12.7533	0.85713
 12.7573	0.857132
 12.7613	0.857134
 12.7653	0.857136
 12.7693	0.857138
 12.7733	0.85714
 12.7773	0.857141
 12.7813	0.857143
 12.7853	0.857145
 12.7893	0.857147
 12.7933	0.857149
 12.7973	0.857151
 12.8013	0.857153
 12.8053	0.857155
 12.8093	0.857156
 12.8133	0.857158
 12.8173	0.85716
 12.8213	0.857162
 12.8253	0.857164
 12.8293	0.857166
 12.8333	0.857167
 12.8373	0.857169
 12.8413	0.857171
 12.8453	0.857173
 12.8493	0.857175
 12.8533	0.857176
 12.8573	0.857178
 12.8613	0.85718
 12.8653	0.857182
 12.8693	0.857184
 12.8733	0.857185
 12.8773	0.857187
 12.8813	0.857189
 12.8853	0.857191
 12.8893	0.857192
 12.8933	0.857194
 12.8973	0.857196
 12.9013	0.857198
 12.9053	0.8572
 12.9093	0.857201
 12.9133	0.857203
 12.9173	0.857205
 12.9213	0.857206
 12.9253	0.857208
 12.9293	0.85721
 12.9333	0.857212
 12.9373	0.857213
 12.9413	0.857215
 12.9453	0.857217
 12.9493	0.857219
 12.9533	0.85722
 12.9573	0.857222
 12.9613	0.857224
 12.9653	0.857225
 12.9693	0.857227
 12.9733	0.857229
 12.9773	0.85723
 12.9813	0.857232
 12.9853	0.857234
 12.9893	0.857235
 12.9933	0.857237
 12.9973	0.857239
 13.0013	0.857241
 13.0053	0.857243
 13.0093	0.857245
 13.0133	0.857247
 13.0173	0.857249
 13.0213	0.857251
 13.0253	0.857253
 13.0293	0.857256
 13.0333	0.857258
 13.0373	0.85726
 13.0413	0.857262
 13.0453	0.857264
 13.0493	0.857266
 13.0533	0.857268
 13.0573	0.85727
 13.0613	0.857272
 13.0653	0.857274
 13.0693	0.857277
 13.0733	0.857279
 13.0773	0.857281
 13.0813	0.857283
 13.0853	0.857285
 13.0893	0.857287
 13.0933	0.857289
 13.0973	0.857291
 13.1013	0.857293
 13.1053	0.857295
 13.1093	0.857297
 13.1133	0.857299
 13.1173	0.857301
 13.1213	0.857303
 13.1253	0.857305
 13.1293	0.857307
 13.1333	0.85731
 13.1373	0.857312
 13.1413	0.857314
 13.1453	0.857316
 13.1493	0.857318
 13.1533	0.85732
 13.1573	0.857322
 13.1613	0.857324
 13.1653	0.857326
 13.1693	0.857328
 13.1733	0.85733
 13.1773	0.857332
 13.1813	0.857334
 13.1853	0.857336
 13.1893	0.857338
 13.1933	0.85734
 13.1973	0.857342
 13.2013	0.857344
 13.2053	0.857346
 13.2093	0.857348
 13.2133	0.85735
 13.2173	0.857351
 13.2213	0.857353
 13.2253	0.857355
 13.2293	0.857357
 13.2333	0.857359
 13.2373	0.857361
 13.2413	0.857363
 13.2453	0.857365
 13.2493	0.857367
 13.2533	0.857369
 13.2573	0.857371
 13.2613	0.857373
 13.2653	0.857375
 13.2693	0.857377
 13.2733	0.857379
 13.2773	0.857381
 13.2813	0.857383
 13.2853	0.857384
 13.2893	0.857386
 13.2933	0.857388
 13.2973	0.85739
 13.3013	0.857392
 13.3053	0.857394
 13.3093	0.857396
 13.3133	0.857398
 13.3173	0.8574
 13.3213	0.857402
 13.3253	0.857403
 13.3293	0.857405
 13.3333	0.857407
 13.3373	0.857409
 13.3413	0.857411
 13.3453	0.857413
 13.3493	0.857415
 13.3533	0.857417
 13.3573	0.857418
 13.3613	0.85742
 13.3653	0.857422
 13.3693	0.857424
 13.3733	0.857426
 13.3773	0.857428
 13.3813	0.857429
 13.3853	0.857431
 13.3893	0.857433
 13.3933	0.857435
 13.3973	0.857437
 13.4013	0.857439
 13.4053	0.85744
 13.4093	0.857442
 13.4133	0.857444
 13.4173	0.857446
 13.4213	0.857448
 13.4253	0.85745
 13.4293	0.857451
 13.4333	0.857453
 13.4373	0.857455
 13.4413	0.857457
 13.4453	0.857459
 13.4493	0.85746
 13.4533	0.857462
 13.4573	0.857464
 13.4613	0.857466
 13.4653	0.857468
 13.4693	0.857469
 13.4733	0.857471
 13.4773	0.857473
 13.4813	0.857475
 13.4853	0.857476
 13.4893	0.857478
 13.4933	0.85748
 13.4973	0.857482
 13.5014	0.857484
 13.5054	0.857485
 13.5094	0.857487
 13.5134	0.857489
 13.5174	0.857491
 13.5214	0.857492
 13.5254	0.857494
 13.5294	0.857496
 13.5334	0.857498
 13.5374	0.857499
 13.5414	0.857501
 13.5454	0.857503
 13.5494	0.857504
 13.5534	0.857506
 13.5574	0.857508
 13.5614	0.85751
 13.5654	0.857511
 13.5694	0.857513
 13.5734	0.857515
 13.5774	0.857517
 13.5814	0.857518
 13.5854	0.85752
 13.5894	0.857522
 13.5934	0.857523
 13.5974	0.857525
 13.6014	0.857527
 13.6054	0.857528
 13.6094	0.85753
 13.6134	0.857532
 13.6174	0.857534
 13.6214	0.857535
 13.6254	0.857537
 13.6294	0.857539
 13.6334	0.85754
 13.6374	0.857542
 13.6414	0.857544
 13.6454	0.857545
 13.6494	0.857547
 13.6534	0.857549
 13.6574	0.85755
 13.6614	0.857552
 13.6654	0.857554
 13.6694	0.857555
 13.6734	0.857557
 13.6774	0.857559
 13.6814	0.85756
 13.6854	0.857562
 13.6894	0.857564
 13.6934	0.857565
 13.6974	0.857567
 13.7014	0.857568
 13.7054	0.85757
 13.7094	0.857572
 13.7134	0.857573
 13.7174	0.857575
 13.7214	0.857577
 13.7254	0.857578
 13.7294	0.85758
 13.7334	0.857582
 13.7374	0.857583
 13.7414	0.857585
 13.7454	0.857586
 13.7494	0.857588
 13.7534	0.85759
 13.7574	0.857591
 13.7614	0.857593
 13.7654	0.857594
 13.7694	0.857596
 13.7734	0.857598
 13.7774	0.857599
 13.7814	0.857601
 13.7854	0.857602
 13.7894	0.857604
 13.7934	0.857606
 13.7974	0.857607
 13.8014	0.857609
 13.8054	0.85761
 13.8094	0.857612
 13.8134	0.857614
 13.8174	0.857615
 13.8214	0.857617
 13.8254	0.857618
 13.8294	0.85762
 13.8334	0.857621
 13.8374	0.857623
 13.8414	0.857625
 13.8454	0.857626
 13.8494	0.857628
 13.8534	0.857629
 13.8574	0.857631
 13.8614	0.857632
 13.8654	0.857634
 13.8694	0.857635
 13.8734	0.857637
 13.8774	0.857639
 13.8814	0.85764
 13.8854	0.857642
 13.8894	0.857643
 13.8934	0.857645
 13.8974	0.857646
 13.9014	0.857648
 13.9054	0.857649
 13.9094	0.857651
 13.9134	0.857652
 13.9174	0.857654
 13.9214	0.857655
 13.9254	0.857657
 13.9294	0.857658
 13.9334	0.85766
 13.9374	0.857661
 13.9414	0.857663
 13.9454	0.857664
 13.9494	0.857666
 13.9534	0.857668
 13.9574	0.857669
 13.9614	0.857671
 13.9654	0.857672
 13.9694	0.857674
 13.9734	0.857675
 13.9774	0.857677
 13.9814	0.857678
 13.9854	0.85768
 13.9894	0.857681
 13.9934	0.857682
 13.9974	0.857684
 14.0014	0.857685
 14.0054	0.857687
 14.0094	0.857688
 14.0134	0.85769
 14.0174	0.857691
 14.0214	0.857693
 14.0254	0.857694
 14.0294	0.857696
 14.0334	0.857697
 14.0374	0.857699
 14.0414	0.8577
 14.0454	0.857702
 14.0494	0.857703
 14.0534	0.857705
 14.0574	0.857706
 14.0614	0.857708
 14.0654	0.857709
 14.0694	0.85771
 14.0734	0.857712
 14.0774	0.857713
 14.0814	0.857715
 14.0854	0.857716
 14.0894	0.857718
 14.0934	0.857719
 14.0974	0.857721
 14.1014	0.857722
 14.1054	0.857723
 14.1094	0.857725
 14.1134	0.857726
 14.1174	0.857728
 14.1214	0.857729
 14.1254	0.857731
 14.1294	0.857732
 14.1334	0.857733
 14.1374	0.857735
 14.1414	0.857736
 14.1454	0.857738
 14.1494	0.857739
 14.1534	0.857741
 14.1574	0.857742
 14.1614	0.857743
 14.1654	0.857745
 14.1694	0.857746
 14.1734	0.857748
 14.1774	0.857749
 14.1814	0.85775
 14.1854	0.857752
 14.1894	0.857753
 14.1934	0.857755
 14.1974	0.857756
 14.2014	0.857757
 14.2054	0.857759
 14.2094	0.85776
 14.2134	0.857762
 14.2174	0.857763
 14.2214	0.857764
 14.2254	0.857766
 14.2294	0.857767
 14.2334	0.857769
 14.2374	0.85777
 14.2414	0.857771
 14.2454	0.857773
 14.2494	0.857774
 14.2534	0.857775
 14.2574	0.857777
 14.2614	0.857778
 14.2654	0.85778
 14.2694	0.857781
 14.2734	0.857782
 14.2774	0.857784
 14.2814	0.857785
 14.2854	0.857786
 14.2894	0.857788
 14.2934	0.857789
 14.2974	0.857791
 14.3014	0.857792
 14.3054	0.857793
 14.3094	0.857795
 14.3134	0.857796
 14.3174	0.857797
 14.3214	0.857799
 14.3254	0.8578
 14.3294	0.857801
 14.3334	0.857803
 14.3374	0.857804
 14.3414	0.857805
 14.3454	0.857807
 14.3494	0.857808
 14.3534	0.857809
 14.3574	0.857811
 14.3614	0.857812
 14.3654	0.857813
 14.3694	0.857815
 14.3734	0.857816
 14.3774	0.857817
 14.3814	0.857819
 14.3854	0.85782
 14.3894	0.857821
 14.3934	0.857823
 14.3974	0.857824
 14.4014	0.857825
 14.4054	0.857827
 14.4094	0.857828
 14.4134	0.857829
 14.4174	0.857831
 14.4214	0.857832
 14.4254	0.857833
 14.4294	0.857835
 14.4334	0.857836
 14.4374	0.857837
 14.4414	0.857838
 14.4454	0.85784
 14.4494	0.857841
 14.4534	0.857842
 14.4574	0.857844
 14.4614	0.857845
 14.4654	0.857846
 14.4694	0.857848
 14.4734	0.857849
 14.4774	0.85785
 14.4814	0.857851
 14.4854	0.857853
 14.4894	0.857854
 14.4934	0.857855
 14.4974	0.857857
 14.5015	0.857858
 14.5055	0.857859
 14.5095	0.85786
 14.5135	0.857862
 14.5175	0.857863
 14.5215	0.857864
 14.5255	0.857866
 14.5295	0.857867
 14.5335	0.857868
 14.5375	0.857869
 14.5415	0.857871
 14.5455	0.857872
 14.5495	0.857873
 14.5535	0.857875
 14.5575	0.857876
 14.5615	0.857877
 14.5655	0.857878
 14.5695	0.85788
 14.5735	0.857881
 14.5775	0.857882
 14.5815	0.857883
 14.5855	0.857885
 14.5895	0.857886
 14.5935	0.857887
 14.5975	0.857888
 14.6015	0.85789
 14.6055	0.857891
 14.6095	0.857892
 14.6135	0.857893
 14.6175	0.857895
 14.6215	0.857896
 14.6255	0.857897
 14.6295	0.857898
 14.6335	0.8579
 14.6375	0.857901
 14.6415	0.857902
 14.6455	0.857903
 14.6495	0.857905
 14.6535	0.857906
 14.6575	0.857907
 14.6615	0.857908
 14.6655	0.85791
 14.6695	0.857911
 14.6735	0.857912
 14.6775	0.857913
 14.6815	0.857914
 14.6855	0.857916
 14.6895	0.857917
 14.6935	0.857918
 14.6975	0.857919
 14.7015	0.857921
 14.7055	0.857922
 14.7095	0.857923
 14.7135	0.857924
 14.7175	0.857926
 14.7215	0.857927
 14.7255	0.857928
 14.7295	0.857929
 14.7335	0.85793
 14.7375	0.857932
 14.7415	0.857933
 14.7455	0.857934
 14.7495	0.857935
 14.7535	0.857936
 14.7575	0.857938
 14.7615	0.857939
 14.7655	0.85794
 14.7695	0.857941
 14.7735	0.857942
 14.7775	0.857944
 14.7815	0.857945
 14.7855	0.857946
 14.7895	0.857947
 14.7935	0.857948
 14.7975	0.85795
 14.8015	0.857951
 14.8055	0.857952
 14.8095	0.857953
 14.8135	0.857954
 14.8175	0.857956
 14.8215	0.857957
 14.8255	0.857958
 14.8295	0.857959
 14.8335	0.85796
 14.8375	0.857962
 14.8415	0.857963
 14.8455	0.857964
 14.8495	0.857965
 14.8535	0.857966
 14.8575	0.857967
 14.8615	0.857969
 14.8655	0.85797
 14.8695	0.857971
 14.8735	0.857972
 14.8775	0.857973
 14.8815	0.857975
 14.8855	0.857976
 14.8895	0.857977
 14.8935	0.857978
 14.8975	0.857979
 14.9015	0.85798
 14.9055	0.857982
 14.9095	0.857983
 14.9135	0.857984
 14.9175	0.857985
 14.9215	0.857986
 14.9255	0.857987
 14.9295	0.857989
 14.9335	0.85799
 14.9375	0.857991
 14.9415	0.857992
 14.9455	0.857993
 14.9495	0.857994
 14.9535	0.857995
 14.9575	0.857997
 14.9615	0.857998
 14.9655	0.857999
 14.9695	0.858
 14.9735	0.858001
 14.9775	0.858002
 14.9815	0.858004
 14.9855	0.858005
 14.9895	0.858006
 14.9935	0.858007
 14.9975	0.858008
 15.0015	0.858009
 15.0055	0.85801
 15.0095	0.85801
 15.0135	0.858011
 15.0175	0.858011
 15.0215	0.858012
 15.0255	0.858013
 15.0295	0.858013
 15.0335	0.858014
 15.0375	0.858014
 15.0415	0.858015
 15.0455	0.858015
 15.0495	0.858016
 15.0535	0.858017
 15.0575	0.858017
 15.0615	0.858018
 15.0655	0.858018
 15.0695	0.858019
 15.0735	0.858019
 15.0775	0.85802
 15.0815	0.85802
 15.0855	0.858021
 15.0895	0.858022
 15.0935	0.858022
 15.0975	0.858023
 15.1015	0.858023
 15.1055	0.858024
 15.1095	0.858024
 15.1135	0.858025
 15.1175	0.858025
 15.1215	0.858026
 15.1255	0.858027
 15.1295	0.858027
 15.1335	0.858028
 15.1375	0.858028
 15.1415	0.858029
 15.1455	0.858029
 15.1495	0.85803
 15.1535	0.85803
 15.1575	0.858031
 15.1615	0.858032
 15.1655	0.858032
 15.1695	0.858033
 15.1735	0.858033
 15.1775	0.858034
 15.1815	0.858034
 15.1855	0.858035
 15.1895	0.858035
 15.1935	0.858036
 15.1975	0.858036
 15.2015	0.858037
 15.2055	0.858037
 15.2095	0.858038
 15.2135	0.858039
 15.2175	0.858039
 15.2215	0.85804
 15.2255	0.85804
 15.2295	0.858041
 15.2335	0.858041
 15.2375	0.858042
 15.2415	0.858042
 15.2455	0.858043
 15.2495	0.858043
 15.2535	0.858044
 15.2575	0.858044
 15.2615	0.858045
 15.2655	0.858045
 15.2695	0.858046
 15.2735	0.858046
 15.2775	0.858047
 15.2815	0.858047
 15.2855	0.858048
 15.2895	0.858048
 15.2935	0.858049
 15.2975	0.85805
 15.3015	0.85805
 15.3055	0.858051
 15.3095	0.858051
 15.3135	0.858052
 15.3175	0.858052
 15.3215	0.858053
 15.3255	0.858053
 15.3295	0.858054
 15.3335	0.858054
 15.3375	0.858055
 15.3415	0.858055
 15.3455	0.858056
 15.3495	0.858056
 15.3535	0.858057
 15.3575	0.858057
 15.3615	0.858058
 15.3655	0.858058
 15.3695	0.858059
 15.3735	0.858059
 15.3775	0.85806
 15.3815	0.85806
 15.3855	0.858061
 15.3895	0.858061
 15.3935	0.858062
 15.3975	0.858062
 15.4015	0.858063
 15.4055	0.858063
 15.4095	0.858064
 15.4135	0.858064
 15.4175	0.858065
 15.4215	0.858065
 15.4255	0.858066
 15.4295	0.858066
 15.4335	0.858067
 15.4375	0.858067
 15.4415	0.858068
 15.4455	0.858068
 15.4495	0.858069
 15.4535	0.858069
 15.4575	0.85807
 15.4615	0.85807
 15.4655	0.858071
 15.4695	0.858071
 15.4735	0.858071
 15.4775	0.858072
 15.4815	0.858072
 15.4855	0.858073
 15.4895	0.858073
 15.4935	0.858074
 15.4975	0.858074
 15.5016	0.858075
 15.5056	0.858075
 15.5096	0.858076
 15.5136	0.858076
 15.5176	0.858077
 15.5216	0.858077
 15.5256	0.858078
 15.5296	0.858078
 15.5336	0.858079
 15.5376	0.858079
 15.5416	0.85808
 15.5456	0.85808
 15.5496	0.858081
 15.5536	0.858081
 15.5576	0.858081
 15.5616	0.858082
 15.5656	0.858082
 15.5696	0.858083
 15.5736	0.858083
 15.5776	0.858084
 15.5816	0.858084
 15.5856	0.858085
 15.5896	0.858085
 15.5936	0.858086
 15.5976	0.858086
 15.6016	0.858087
 15.6056	0.858087
 15.6096	0.858088
 15.6136	0.858088
 15.6176	0.858088
 15.6216	0.858089
 15.6256	0.858089
 15.6296	0.85809
 15.6336	0.85809
 15.6376	0.858091
 15.6416	0.858091
 15.6456	0.858092
 15.6496	0.858092
 15.6536	0.858093
 15.6576	0.858093
 15.6616	0.858093
 15.6656	0.858094
 15.6696	0.858094
 15.6736	0.858095
 15.6776	0.858095
 15.6816	0.858096
 15.6856	0.858096
 15.6896	0.858097
 15.6936	0.858097
 15.6976	0.858098
 15.7016	0.858098
 15.7056	0.858098
 15.7096	0.858099
 15.7136	0.858099
 15.7176	0.8581
 15.7216	0.8581
 15.7256	0.858101
 15.7296	0.858101
 15.7336	0.858102
 15.7376	0.858102
 15.7416	0.858102
 15.7456	0.858103
 15.7496	0.858103
 15.7536	0.858104
 15.7576	0.858104
 15.7616	0.858105
 15.7656	0.858105
 15.7696	0.858105
 15.7736	0.858106
 15.7776	0.858106
 15.7816	0.858107
 15.7856	0.858107
 15.7896	0.858108
 15.7936	0.858108
 15.7976	0.858109
 15.8016	0.858109
 15.8056	0.858109
 15.8096	0.85811
 15.8136	0.85811
 15.8176	0.858111
 15.8216	0.858111
 15.8256	0.858112
 15.8296	0.858112
 15.8336	0.858112
 15.8376	0.858113
 15.8416	0.858113
 15.8456	0.858114
 15.8496	0.858114
 15.8536	0.858115
 15.8576	0.858115
 15.8616	0.858115
 15.8656	0.858116
 15.8696	0.858116
 15.8736	0.858117
 15.8776	0.858117
 15.8816	0.858118
 15.8856	0.858118
 15.8896	0.858118
 15.8936	0.858119
 15.8976	0.858119
 15.9016	0.85812
 15.9056	0.85812
 15.9096	0.85812
 15.9136	0.858121
 15.9176	0.858121
 15.9216	0.858122
 15.9256	0.858122
 15.9296	0.858123
 15.9336	0.858123
 15.9376	0.858123
 15.9416	0.858124
 15.9456	0.858124
 15.9496	0.858125
 15.9536	0.858125
 15.9576	0.858125
 15.9616	0.858126
 15.9656	0.858126
 15.9696	0.858127
 15.9736	0.858127
 15.9776	0.858127
 15.9816	0.858128
 15.9856	0.858128
 15.9896	0.858129
 15.9936	0.858129
 15.9976	0.85813
 16.0016	0.85813
 16.0056	0.858131
 16.0096	0.858131
 16.0136	0.858132
 16.0176	0.858133
 16.0216	0.858133
 16.0256	0.858134
 16.0296	0.858135
 16.0336	0.858135
 16.0376	0.858136
 16.0416	0.858136
 16.0456	0.858137
 16.0496	0.858138
 16.0536	0.858138
 16.0576	0.858139
 16.0616	0.85814
 16.0656	0.85814
 16.0696	0.858141
 16.0736	0.858142
 16.0776	0.858142
 16.0816	0.858143
 16.0856	0.858144
 16.0896	0.858144
 16.0936	0.858145
 16.0976	0.858145
 16.1016	0.858146
 16.1056	0.858147
 16.1096	0.858147
 16.1136	0.858148
 16.1176	0.858149
 16.1216	0.858149
 16.1256	0.85815
 16.1296	0.858151
 16.1336	0.858151
 16.1376	0.858152
 16.1416	0.858152
 16.1456	0.858153
 16.1496	0.858154
 16.1536	0.858154
 16.1576	0.858155
 16.1616	0.858156
 16.1656	0.858156
 16.1696	0.858157
 16.1736	0.858158
 16.1776	0.858158
 16.1816	0.858159
 16.1856	0.858159
 16.1896	0.85816
 16.1936	0.858161
 16.1976	0.858161
 16.2016	0.858162
 16.2056	0.858163
 16.2096	0.858163
 16.2136	0.858164
 16.2176	0.858164
 16.2216	0.858165
 16.2256	0.858166
 16.2296	0.858166
 16.2336	0.858167
 16.2376	0.858168
 16.2416	0.858168
 16.2456	0.858169
 16.2496	0.858169
 16.2536	0.85817
 16.2576	0.858171
 16.2616	0.858171
 16.2656	0.858172
 16.2696	0.858173
 16.2736	0.858173
 16.2776	0.858174
 16.2816	0.858174
 16.2856	0.858175
 16.2896	0.858176
 16.2936	0.858176
 16.2976	0.858177
 16.3016	0.858177
 16.3056	0.858178
 16.3096	0.858179
 16.3136	0.858179
 16.3176	0.85818
 16.3216	0.858181
 16.3256	0.858181
 16.3296	0.858182
 16.3336	0.858182
 16.3376	0.858183
 16.3416	0.858184
 16.3456	0.858184
 16.3496	0.858185
 16.3536	0.858185
 16.3576	0.858186
 16.3616	0.858187
 16.3656	0.858187
 16.3696	0.858188
 16.3736	0.858188
 16.3776	0.858189
 16.3816	0.85819
 16.3856	0.85819
 16.3896	0.858191
 16.3936	0.858192
 16.3976	0.858192
 16.4016	0.858193
 16.4056	0.858193
 16.4096	0.858194
 16.4136	0.858195
 16.4176	0.858195
 16.4216	0.858196
 16.4256	0.858196
 16.4296	0.858197
 16.4336	0.858198
 16.4376	0.858198
 16.4416	0.858199
 16.4456	0.858199
 16.4496	0.8582
 16.4536	0.858201
 16.4576	0.858201
 16.4616	0.858202
 16.4656	0.858202
 16.4696	0.858203
 16.4736	0.858204
 16.4776	0.858204
 16.4816	0.858205
 16.4856	0.858205
 16.4896	0.858206
 16.4936	0.858207
 16.4976	0.858207
 16.5017	0.858208
 16.5057	0.858208
 16.5097	0.858209
 16.5137	0.85821
 16.5177	0.85821
 16.5217	0.858211
 16.5257	0.858211
 16.5297	0.858212
 16.5337	0.858213
 16.5377	0.858213
 16.5417	0.858214
 16.5457	0.858214
 16.5497	0.858215
 16.5537	0.858216
 16.5577	0.858216
 16.5617	0.858217
 16.5657	0.858217
 16.5697	0.858218
 16.5737	0.858219
 16.5777	0.858219
 16.5817	0.85822
 16.5857	0.85822
 16.5897	0.858221
 16.5937	0.858222
 16.5977	0.858222
 16.6017	0.858223
 16.6057	0.858223
 16.6097	0.858224
 16.6137	0.858224
 16.6177	0.858225
 16.6217	0.858226
 16.6257	0.858226
 16.6297	0.858227
 16.6337	0.858227
 16.6377	0.858228
 16.6417	0.858229
 16.6457	0.858229
 16.6497	0.85823
 16.6537	0.85823
 16.6577	0.858231
 16.6617	0.858232
 16.6657	0.858232
 16.6697	0.858233
 16.6737	0.858233
 16.6777	0.858234
 16.6817	0.858234
 16.6857	0.858235
 16.6897	0.858236
 16.6937	0.858236
 16.6977	0.858237
 16.7017	0.858237
 16.7057	0.858238
 16.7097	0.858239
 16.7137	0.858239
 16.7177	0.85824
 16.7217	0.85824
 16.7257	0.858241
 16.7297	0.858241
 16.7337	0.858242
 16.7377	0.858243
 16.7417	0.858243
 16.7457	0.858244
 16.7497	0.858244
 16.7537	0.858245
 16.7577	0.858245
 16.7617	0.858246
 16.7657	0.858247
 16.7697	0.858247
 16.7737	0.858248
 16.7777	0.858248
 16.7817	0.858249
 16.7857	0.85825
 16.7897	0.85825
 16.7937	0.858251
 16.7977	0.858251
 16.8017	0.858252
 16.8057	0.858252
 16.8097	0.858253
 16.8137	0.858254
 16.8177	0.858254
 16.8217	0.858255
 16.8257	0.858255
 16.8297	0.858256
 16.8337	0.858256
 16.8377	0.858257
 16.8417	0.858258
 16.8457	0.858258
 16.8497	0.858259
 16.8537	0.858259
 16.8577	0.85826
 16.8617	0.85826
 16.8657	0.858261
 16.8697	0.858262
 16.8737	0.858262
 16.8777	0.858263
 16.8817	0.858263
 16.8857	0.858264
 16.8897	0.858264
 16.8937	0.858265
 16.8977	0.858266
 16.9017	0.858266
 16.9057	0.858267
 16.9097	0.858267
 16.9137	0.858268
 16.9177	0.858268
 16.9217	0.858269
 16.9257	0.85827
 16.9297	0.85827
 16.9337	0.858271
 16.9377	0.858271
 16.9417	0.858272
 16.9457	0.858272
 16.9497	0.858273
 16.9537	0.858274
 16.9577	0.858274
 16.9617	0.858275
 16.9657	0.858275
 16.9697	0.858276
 16.9737	0.858276
 16.9777	0.858277
 16.9817	0.858278
 16.9857	0.858278
 16.9897	0.858279
 16.9937	0.858279
 16.9977	0.85828
 17.0017	0.85828
 17.0057	0.858281
 17.0097	0.858281
 17.0137	0.858282
 17.0177	0.858282
 17.0217	0.858283
 17.0257	0.858283
 17.0297	0.858284
 17.0337	0.858284
 17.0377	0.858285
 17.0417	0.858285
 17.0457	0.858286
 17.0497	0.858286
 17.0537	0.858287
 17.0577	0.858287
 17.0617	0.858288
 17.0657	0.858288
 17.0697	0.858288
 17.0737	0.858289
 17.0777	0.858289
 17.0817	0.85829
 17.0857	0.85829
 17.0897	0.858291
 17.0937	0.858291
 17.0977	0.858292
 17.1017	0.858292
 17.1057	0.858293
 17.1097	0.858293
 17.1137	0.858294
 17.1177	0.858294
 17.1217	0.858295
 17.1257	0.858295
 17.1297	0.858296
 17.1337	0.858296
 17.1377	0.858297
 17.1417	0.858297
 17.1457	0.858298
 17.1497	0.858298
 17.1537	0.858298
 17.1577	0.858299
 17.1617	0.858299
 17.1657	0.8583
 17.1697	0.8583
 17.1737	0.858301
 17.1777	0.858301
 17.1817	0.858302
 17.1857	0.858302
 17.1897	0.858303
 17.1937	0.858303
 17.1977	0.858304
 17.2017	0.858304
 17.2057	0.858305
 17.2097	0.858305
 17.2137	0.858306
 17.2177	0.858306
 17.2217	0.858307
 17.2257	0.858307
 17.2297	0.858307
 17.2337	0.858308
 17.2377	0.858308
 17.2417	0.858309
 17.2457	0.858309
 17.2497	0.85831
 17.2537	0.85831
 17.2577	0.858311
 17.2617	0.858311
 17.2657	0.858312
 17.2697	0.858312
 17.2737	0.858313
 17.2777	0.858313
 17.2817	0.858314
 17.2857	0.858314
 17.2897	0.858315
 17.2937	0.858315
 17.2977	0.858315
 17.3017	0.858316
 17.3057	0.858316
 17.3097	0.858317
 17.3137	0.858317
 17.3177	0.858318
 17.3217	0.858318
 17.3257	0.858319
 17.3297	0.858319
 17.3337	0.85832
 17.3377	0.85832
 17.3417	0.858321
 17.3457	0.858321
 17.3497	0.858321
 17.3537	0.858322
 17.3577	0.858322
 17.3617	0.858323
 17.3657	0.858323
 17.3697	0.858324
 17.3737	0.858324
 17.3777	0.858325
 17.3817	0.858325
 17.3857	0.858326
 17.3897	0.858326
 17.3937	0.858327
 17.3977	0.858327
 17.4017	0.858328
 17.4057	0.858328
 17.4097	0.858328
 17.4137	0.858329
 17.4177	0.858329
 17.4217	0.85833
 17.4257	0.85833
 17.4297	0.858331
 17.4337	0.858331
 17.4377	0.858332
 17.4417	0.858332
 17.4457	0.858333
 17.4497	0.858333
 17.4537	0.858334
 17.4577	0.858334
 17.4617	0.858334
 17.4657	0.858335
 17.4697	0.858335
 17.4737	0.858336
 17.4777	0.858336
 17.4817	0.858337
 17.4857	0.858337
 17.4897	0.858338
 17.4937	0.858338
 17.4977	0.858339
 17.5018	0.858339
 17.5058	0.85834
 17.5098	0.85834
 17.5138	0.85834
 17.5178	0.858341
 17.5218	0.858341
 17.5258	0.858342
 17.5298	0.858342
 17.5338	0.858343
 17.5378	0.858343
 17.5418	0.858344
 17.5458	0.858344
 17.5498	0.858345
 17.5538	0.858345
 17.5578	0.858345
 17.5618	0.858346
 17.5658	0.858346
 17.5698	0.858347
 17.5738	0.858347
 17.5778	0.858348
 17.5818	0.858348
 17.5858	0.858349
 17.5898	0.858349
 17.5938	0.85835
 17.5978	0.85835
 17.6018	0.85835
 17.6058	0.858351
 17.6098	0.858351
 17.6138	0.858352
 17.6178	0.858352
 17.6218	0.858353
 17.6258	0.858353
 17.6298	0.858354
 17.6338	0.858354
 17.6378	0.858355
 17.6418	0.858355
 17.6458	0.858355
 17.6498	0.858356
 17.6538	0.858356
 17.6578	0.858357
 17.6618	0.858357
 17.6658	0.858358
 17.6698	0.858358
 17.6738	0.858359
 17.6778	0.858359
 17.6818	0.85836
 17.6858	0.85836
 17.6898	0.85836
 17.6938	0.858361
 17.6978	0.858361
 17.7018	0.858362
 17.7058	0.858362
 17.7098	0.858363
 17.7138	0.858363
 17.7178	0.858364
 17.7218	0.858364
 17.7258	0.858364
 17.7298	0.858365
 17.7338	0.858365
 17.7378	0.858366
 17.7418	0.858366
 17.7458	0.858367
 17.7498	0.858367
 17.7538	0.858368
 17.7578	0.858368
 17.7618	0.858369
 17.7658	0.858369
 17.7698	0.858369
 17.7738	0.85837
 17.7778	0.85837
 17.7818	0.858371
 17.7858	0.858371
 17.7898	0.858372
 17.7938	0.858372
 17.7978	0.858373
 17.8018	0.858373
 17.8058	0.858373
 17.8098	0.858374
 17.8138	0.858374
 17.8178	0.858375
 17.8218	0.858375
 17.8258	0.858376
 17.8298	0.858376
 17.8338	0.858377
 17.8378	0.858377
 17.8418	0.858377
 17.8458	0.858378
 17.8498	0.858378
 17.8538	0.858379
 17.8578	0.858379
 17.8618	0.85838
 17.8658	0.85838
 17.8698	0.858381
 17.8738	0.858381
 17.8778	0.858381
 17.8818	0.858382
 17.8858	0.858382
 17.8898	0.858383
 17.8938	0.858383
 17.8978	0.858384
 17.9018	0.858384
 17.9058	0.858385
 17.9098	0.858385
 17.9138	0.858385
 17.9178	0.858386
 17.9218	0.858386
 17.9258	0.858387
 17.9298	0.858387
 17.9338	0.858388
 17.9378	0.858388
 17.9418	0.858389
 17.9458	0.858389
 17.9498	0.858389
 17.9538	0.85839
 17.9578	0.85839
 17.9618	0.858391
 17.9658	0.858391
 17.9698	0.858392
 17.9738	0.858392
 17.9778	0.858393
 17.9818	0.858393
 17.9858	0.858393
 17.9898	0.858394
 17.9938	0.858394
 17.9978	0.858395
 18.0018	0.858395
 18.0058	0.858396
 18.0098	0.858396
 18.0138	0.858397
 18.0178	0.858398
 18.0218	0.858398
 18.0258	0.858399
 18.0298	0.8584
 18.0338	0.8584
 18.0378	0.858401
 18.0418	0.858401
 18.0458	0.858402
 18.0498	0.858403
 18.0538	0.858403
 18.0578	0.858404
 18.0618	0.858404
 18.0658	0.858405
 18.0698	0.858406
 18.0738	0.858406
 18.0778	0.858407
 18.0818	0.858407
 18.0858	0.858408
 18.0898	0.858409
 18.0938	0.858409
 18.0978	0.85841
 18.1018	0.85841
 18.1058	0.858411
 18.1098	0.858412
 18.1138	0.858412
 18.1178	0.858413
 18.1218	0.858413
 18.1258	0.858414
 18.1298	0.858415
 18.1338	0.858415
 18.1378	0.858416
 18.1418	0.858416
 18.1458	0.858417
 18.1498	0.858418
 18.1538	0.858418
 18.1578	0.858419
 18.1618	0.858419
 18.1658	0.85842
 18.1698	0.85842
 18.1738	0.858421
 18.1778	0.858422
 18.1818	0.858422
 18.1858	0.858423
 18.1898	0.858423
 18.1938	0.858424
 18.1978	0.858425
 18.2018	0.858425
 18.2058	0.858426
 18.2098	0.858426
 18.2138	0.858427
 18.2178	0.858428
 18.2218	0.858428
 18.2258	0.858429
 18.2298	0.858429
 18.2338	0.85843
 18.2378	0.858431
 18.2418	0.858431
 18.2458	0.858432
 18.2498	0.858432
 18.2538	0.858433
 18.2578	0.858434
 18.2618	0.858434
 18.2658	0.858435
 18.2698	0.858435
 18.2738	0.858436
 18.2778	0.858437
 18.2818	0.858437
 18.2858	0.858438
 18.2898	0.858438
 18.2938	0.858439
 18.2978	0.85844
 18.3018	0.85844
 18.3058	0.858441
 18.3098	0.858441
 18.3138	0.858442
 18.3178	0.858443
 18.3218	0.858443
 18.3258	0.858444
 18.3298	0.858444
 18.3338	0.858445
 18.3378	0.858446
 18.3418	0.858446
 18.3458	0.858447
 18.3498	0.858447
 18.3538	0.858448
 18.3578	0.858448
 18.3618	0.858449
 18.3658	0.85845
 18.3698	0.85845
 18.3738	0.858451
 18.3778	0.858451
 18.3818	0.858452
 18.3858	0.858453
 18.3898	0.858453
 18.3938	0.858454
 18.3978	0.858454
 18.4018	0.858455
 18.4058	0.858456
 18.4098	0.858456
 18.4138	0.858457
 18.4178	0.858457
 18.4218	0.858458
 18.4258	0.858459
 18.4298	0.858459
 18.4338	0.85846
 18.4378	0.85846
 18.4418	0.858461
 18.4458	0.858462
 18.4498	0.858462
 18.4538	0.858463
 18.4578	0.858463
 18.4618	0.858464
 18.4658	0.858464
 18.4698	0.858465
 18.4738	0.858466
 18.4778	0.858466
 18.4818	0.858467
 18.4858	0.858467
 18.4898	0.858468
 18.4938	0.858469
 18.4978	0.858469
 18.5019	0.85847
 18.5059	0.85847
 18.5099	0.858471
 18.5139	0.858472
 18.5179	0.858472
 18.5219	0.858473
 18.5259	0.858473
 18.5299	0.858474
 18.5339	0.858475
 18.5379	0.858475
 18.5419	0.858476
 18.5459	0.858476
 18.5499	0.858477
 18.5539	0.858477
 18.5579	0.858478
 18.5619	0.858479
 18.5659	0.858479
 18.5699	0.85848
 18.5739	0.85848
 18.5779	0.858481
 18.5819	0.858482
 18.5859	0.858482
 18.5899	0.858483
 18.5939	0.858483
 18.5979	0.858484
 18.6019	0.858485
 18.6059	0.858485
 18.6099	0.858486
 18.6139	0.858486
 18.6179	0.858487
 18.6219	0.858487
 18.6259	0.858488
 18.6299	0.858489
 18.6339	0.858489
 18.6379	0.85849
 18.6419	0.85849
 18.6459	0.858491
 18.6499	0.858492
 18.6539	0.858492
 18.6579	0.858493
 18.6619	0.858493
 18.6659	0.858494
 18.6699	0.858495
 18.6739	0.858495
 18.6779	0.858496
 18.6819	0.858496
 18.6859	0.858497
 18.6899	0.858497
 18.6939	0.858498
 18.6979	0.858499
 18.7019	0.858499
 18.7059	0.8585
 18.7099	0.8585
 18.7139	0.858501
 18.7179	0.858502
 18.7219	0.858502
 18.7259	0.858503
 18.7299	0.858503
 18.7339	0.858504
 18.7379	0.858505
 18.7419	0.858505
 18.7459	0.858506
 18.7499	0.858506
 18.7539	0.858507
 18.7579	0.858507
 18.7619	0.858508
 18.7659	0.858509
 18.7699	0.858509
 18.7739	0.85851
 18.7779	0.85851
 18.7819	0.858511
 18.7859	0.858512
 18.7899	0.858512
 18.7939	0.858513
 18.7979	0.858513
 18.8019	0.858514
 18.8059	0.858514
 18.8099	0.858515
 18.8139	0.858516
 18.8179	0.858516
 18.8219	0.858517
 18.8259	0.858517
 18.8299	0.858518
 18.8339	0.858519
 18.8379	0.858519
 18.8419	0.85852
 18.8459	0.85852
 18.8499	0.858521
 18.8539	0.858522
 18.8579	0.858522
 18.8619	0.858523
 18.8659	0.858523
 18.8699	0.858524
 18.8739	0.858524
 18.8779	0.858525
 18.8819	0.858526
 18.8859	0.858526
 18.8899	0.858527
 18.8939	0.858527
 18.8979	0.858528
 18.9019	0.858529
 18.9059	0.858529
 18.9099	0.85853
 18.9139	0.85853
 18.9179	0.858531
 18.9219	0.858531
 18.9259	0.858532
 18.9299	0.858533
 18.9339	0.858533
 18.9379	0.858534
 18.9419	0.858534
 18.9459	0.858535
 18.9499	0.858536
 18.9539	0.858536
 18.9579	0.858537
 18.9619	0.858537
 18.9659	0.858538
 18.9699	0.858538
 18.9739	0.858539
 18.9779	0.85854
 18.9819	0.85854
 18.9859	0.858541
 18.9899	0.858541
 18.9939	0.858542
 18.9979	0.858543
 19.0019	0.858543
 19.0059	0.858543
 19.0099	0.858544
 19.0139	0.858544
 19.0179	0.858545
 19.0219	0.858545
 19.0259	0.858546
 19.0299	0.858546
 19.0339	0.858546
 19.0379	0.858547
 19.0419	0.858547
 19.0459	0.858548
 19.0499	0.858548
 19.0539	0.858548
 19.0579	0.858549
 19.0619	0.858549
 19.0659	0.85855
 19.0699	0.85855
 19.0739	0.858551
 19.0779	0.858551
 19.0819	0.858551
 19.0859	0.858552
 19.0899	0.858552
 19.0939	0.858553
 19.0979	0.858553
 19.1019	0.858554
 19.1059	0.858554
 19.1099	0.858554
 19.1139	0.858555
 19.1179	0.858555
 19.1219	0.858556
 19.1259	0.858556
 19.1299	0.858556
 19.1339	0.858557
 19.1379	0.858557
 19.1419	0.858558
 19.1459	0.858558
 19.1499	0.858559
 19.1539	0.858559
 19.1579	0.858559
 19.1619	0.85856
 19.1659	0.85856
 19.1699	0.858561
 19.1739	0.858561
 19.1779	0.858562
 19.1819	0.858562
 19.1859	0.858562
 19.1899	0.858563
 19.1939	0.858563
 19.1979	0.858564
 19.2019	0.858564
 19.2059	0.858564
 19.2099	0.858565
 19.2139	0.858565
 19.2179	0.858566
 19.2219	0.858566
 19.2259	0.858567
 19.2299	0.858567
 19.2339	0.858567
 19.2379	0.858568
 19.2419	0.858568
 19.2459	0.858569
 19.2499	0.858569
 19.2539	0.858569
 19.2579	0.85857
 19.2619	0.85857
 19.2659	0.858571
 19.2699	0.858571
 19.2739	0.858572
 19.2779	0.858572
 19.2819	0.858572
 19.2859	0.858573
 19.2899	0.858573
 19.2939	0.858574
 19.2979	0.858574
 19.3019	0.858574
 19.3059	0.858575
 19.3099	0.858575
 19.3139	0.858576
 19.3179	0.858576
 19.3219	0.858577
 19.3259	0.858577
 19.3299	0.858577
 19.3339	0.858578
 19.3379	0.858578
 19.3419	0.858579
 19.3459	0.858579
 19.3499	0.858579
 19.3539	0.85858
 19.3579	0.85858
 19.3619	0.858581
 19.3659	0.858581
 19.3699	0.858582
 19.3739	0.858582
 19.3779	0.858582
 19.3819	0.858583
 19.3859	0.858583
 19.3899	0.858584
 19.3939	0.858584
 19.3979	0.858584
 19.4019	0.858585
 19.4059	0.858585
 19.4099	0.858586
 19.4139	0.858586
 19.4179	0.858587
 19.4219	0.858587
 19.4259	0.858587
 19.4299	0.858588
 19.4339	0.858588
 19.4379	0.858589
 19.4419	0.858589
 19.4459	0.858589
 19.4499	0.85859
 19.4539	0.85859
 19.4579	0.858591
 19.4619	0.858591
 19.4659	0.858592
 19.4699	0.858592
 19.4739	0.858592
 19.4779	0.858593
 19.4819	0.858593
 19.4859	0.858594
 19.4899	0.858594
 19.4939	0.858594
 19.4979	0.858595
 19.502	0.858595
 19.506	0.858596
 19.51	0.858596
 19.514	0.858597
 19.518	0.858597
 19.522	0.858597
 19.526	0.858598
 19.53	0.858598
 19.534	0.858599
 19.538	0.858599
 19.542	0.858599
 19.546	0.8586
 19.55	0.8586
 19.554	0.858601
 19.558	0.858601
 19.562	0.858602
 19.566	0.858602
 19.57	0.858602
 19.574	0.858603
 19.578	0.858603
 19.582	0.858604
 19.586	0.858604
 19.59	0.858604
 19.594	0.858605
 19.598	0.858605
 19.602	0.858606
 19.606	0.858606
 19.61	0.858607
 19.614	0.858607
 19.618	0.858607
 19.622	0.858608
 19.626	0.858608
 19.63	0.858609
 19.634	0.858609
 19.638	0.858609
 19.642	0.85861
 19.646	0.85861
 19.65	0.858611
 19.654	0.858611
 19.658	0.858611
 19.662	0.858612
 19.666	0.858612
 19.67	0.858613
 19.674	0.858613
 19.678	0.858614
 19.682	0.858614
 19.686	0.858614
 19.69	0.858615
 19.694	0.858615
 19.698	0.858616
 19.702	0.858616
 19.706	0.858616
 19.71	0.858617
 19.714	0.858617
 19.718	0.858618
 19.722	0.858618
 19.726	0.858619
 19.73	0.858619
 19.734	0.858619
 19.738	0.85862
 19.742	0.85862
 19.746	0.858621
 19.75	0.858621
 19.754	0.858621
 19.758	0.858622
 19.762	0.858622
 19.766	0.858623
 19.77	0.858623
 19.774	0.858623
 19.778	0.858624
 19.782	0.858624
 19.786	0.858625
 19.79	0.858625
 19.794	0.858626
 19.798	0.858626
 19.802	0.858626
 19.806	0.858627
 19.81	0.858627
 19.814	0.858628
 19.818	0.858628
 19.822	0.858628
 19.826	0.858629
 19.83	0.858629
 19.834	0.85863
 19.838	0.85863
 19.842	0.858631
 19.846	0.858631
 19.85	0.858631
 19.854	0.858632
 19.858	0.858632
 19.862	0.858633
 19.866	0.858633
 19.87	0.858633
 19.874	0.858634
 19.878	0.858634
 19.882	0.858635
 19.886	0.858635
 19.89	0.858635
 19.894	0.858636
 19.898	0.858636
 19.902	0.858637
 19.906	0.858637
 19.91	0.858638
 19.914	0.858638
 19.918	0.858638
 19.922	0.858639
 19.926	0.858639
 19.93	0.85864
 19.934	0.85864
 19.938	0.85864
 19.942	0.858641
 19.946	0.858641
 19.95	0.858642
 19.954	0.858642
 19.958	0.858642
 19.962	0.858643
 19.966	0.858643
 19.97	0.858644
 19.974	0.858644
 19.978	0.858645
 19.982	0.858645
 19.986	0.858645
 19.99	0.858646
 19.994	0.858646
 19.998	0.858647
 20.002	0.858647
 20.006	0.858647
 20.01	0.858648
 20.014	0.858648
 20.018	0.858648
 20.022	0.858648
 20.026	0.858649
 20.03	0.858649
 20.034	0.858649
 20.038	0.85865
 20.042	0.85865
 20.046	0.85865
 20.05	0.858651
 20.054	0.858651
 20.058	0.858651
 20.062	0.858651
 20.066	0.858652
 20.07	0.858652
 20.074	0.858652
 20.078	0.858653
 20.082	0.858653
 20.086	0.858653
 20.09	0.858654
 20.094	0.858654
 20.098	0.858654
 20.102	0.858654
 20.106	0.858655
 20.11	0.858655
 20.114	0.858655
 20.118	0.858656
 20.122	0.858656
 20.126	0.858656
 20.13	0.858656
 20.134	0.858657
 20.138	0.858657
 20.142	0.858657
 20.146	0.858658
 20.15	0.858658
 20.154	0.858658
 20.158	0.858659
 20.162	0.858659
 20.166	0.858659
 20.17	0.858659
 20.174	0.85866
 20.178	0.85866
 20.182	0.85866
 20.186	0.858661
 20.19	0.858661
 20.194	0.858661
 20.198	0.858662
 20.202	0.858662
 20.206	0.858662
 20.21	0.858662
 20.214	0.858663
 20.218	0.858663
 20.222	0.858663
 20.226	0.858664
 20.23	0.858664
 20.234	0.858664
 20.238	0.858665
 20.242	0.858665
 20.246	0.858665
 20.25	0.858665
 20.254	0.858666
 20.258	0.858666
 20.262	0.858666
 20.266	0.858667
 20.27	0.858667
 20.274	0.858667
 20.278	0.858667
 20.282	0.858668
 20.286	0.858668
 20.29	0.858668
 20.294	0.858669
 20.298	0.858669
 20.302	0.858669
 20.306	0.85867
 20.31	0.85867
 20.314	0.85867
 20.318	0.85867
 20.322	0.858671
 20.326	0.858671
 20.33	0.858671
 20.334	0.858672
 20.338	0.858672
 20.342	0.858672
 20.346	0.858673
 20.35	0.858673
 20.354	0.858673
 20.358	0.858673
 20.362	0.858674
 20.366	0.858674
 20.37	0.858674
 20.374	0.858675
 20.378	0.858675
 20.382	0.858675
 20.386	0.858676
 20.39	0.858676
 20.394	0.858676
 20.398	0.858676
 20.402	0.858677
 20.406	0.858677
 20.41	0.858677
 20.414	0.858678
 20.418	0.858678
 20.422	0.858678
 20.426	0.858678
 20.43	0.858679
 20.434	0.858679
 20.438	0.858679
 20.442	0.85868
 20.446	0.85868
 20.45	0.85868
 20.454	0.858681
 20.458	0.858681
 20.462	0.858681
 20.466	0.858681
 20.47	0.858682
 20.474	0.858682
 20.478	0.858682
 20.482	0.858683
 20.486	0.858683
 20.49	0.858683
 20.494	0.858684
 20.498	0.858684
 20.5021	0.858684
 20.5061	0.858684
 20.5101	0.858685
 20.5141	0.858685
 20.5181	0.858685
 20.5221	0.858686
 20.5261	0.858686
 20.5301	0.858686
 20.5341	0.858686
 20.5381	0.858687
 20.5421	0.858687
 20.5461	0.858687
 20.5501	0.858688
 20.5541	0.858688
 20.5581	0.858688
 20.5621	0.858689
 20.5661	0.858689
 20.5701	0.858689
 20.5741	0.858689
 20.5781	0.85869
 20.5821	0.85869
 20.5861	0.85869
 20.5901	0.858691
 20.5941	0.858691
 20.5981	0.858691
 20.6021	0.858691
 20.6061	0.858692
 20.6101	0.858692
 20.6141	0.858692
 20.6181	0.858693
 20.6221	0.858693
 20.6261	0.858693
 20.6301	0.858694
 20.6341	0.858694
 20.6381	0.858694
 20.6421	0.858694
 20.6461	0.858695
 20.6501	0.858695
 20.6541	0.858695
 20.6581	0.858696
 20.6621	0.858696
 20.6661	0.858696
 20.6701	0.858697
 20.6741	0.858697
 20.6781	0.858697
 20.6821	0.858697
 20.6861	0.858698
 20.6901	0.858698
 20.6941	0.858698
 20.6981	0.858699
 20.7021	0.858699
 20.7061	0.858699
 20.7101	0.858699
 20.7141	0.8587
 20.7181	0.8587
 20.7221	0.8587
 20.7261	0.858701
 20.7301	0.858701
 20.7341	0.858701
 20.7381	0.858702
 20.7421	0.858702
 20.7461	0.858702
 20.7501	0.858702
 20.7541	0.858703
 20.7581	0.858703
 20.7621	0.858703
 20.7661	0.858704
 20.7701	0.858704
 20.7741	0.858704
 20.7781	0.858704
 20.7821	0.858705
 20.7861	0.858705
 20.7901	0.858705
 20.7941	0.858706
 20.7981	0.858706
 20.8021	0.858706
 20.8061	0.858707
 20.8101	0.858707
 20.8141	0.858707
 20.8181	0.858707
 20.8221	0.858708
 20.8261	0.858708
 20.8301	0.858708
 20.8341	0.858709
 20.8381	0.858709
 20.8421	0.858709
 20.8461	0.858709
 20.8501	0.85871
 20.8541	0.85871
 20.8581	0.85871
 20.8621	0.858711
 20.8661	0.858711
 20.8701	0.858711
 20.8741	0.858712
 20.8781	0.858712
 20.8821	0.858712
 20.8861	0.858712
 20.8901	0.858713
 20.8941	0.858713
 20.8981	0.858713
 20.9021	0.858714
 20.9061	0.858714
 20.9101	0.858714
 20.9141	0.858714
 20.9181	0.858715
 20.9221	0.858715
 20.9261	0.858715
 20.9301	0.858716
 20.9341	0.858716
 20.9381	0.858716
 20.9421	0.858717
 20.9461	0.858717
 20.9501	0.858717
 20.9541	0.858717
 20.9581	0.858718
 20.9621	0.858718
 20.9661	0.858718
 20.9701	0.858719
 20.9741	0.858719
 20.9781	0.858719
 20.9821	0.85872
 20.9861	0.85872
 20.9901	0.85872
 20.9941	0.85872
 20.9981	0.858721
 21.0021	0.858721
 21.0061	0.858721
 21.0101	0.858722
 21.0141	0.858722
 21.0181	0.858722
 21.0221	0.858722
 21.0261	0.858723
 21.0301	0.858723
 21.0341	0.858723
 21.0381	0.858724
 21.0421	0.858724
 21.0461	0.858724
 21.0501	0.858725
 21.0541	0.858725
 21.0581	0.858725
 21.0621	0.858725
 21.0661	0.858726
 21.0701	0.858726
 21.0741	0.858726
 21.0781	0.858727
 21.0821	0.858727
 21.0861	0.858727
 21.0901	0.858727
 21.0941	0.858728
 21.0981	0.858728
 21.1021	0.858728
 21.1061	0.858729
 21.1101	0.858729
 21.1141	0.858729
 21.1181	0.858729
 21.1221	0.85873
 21.1261	0.85873
 21.1301	0.85873
 21.1341	0.858731
 21.1381	0.858731
 21.1421	0.858731
 21.1461	0.858732
 21.1501	0.858732
 21.1541	0.858732
 21.1581	0.858732
 21.1621	0.858733
 21.1661	0.858733
 21.1701	0.858733
 21.1741	0.858734
 21.1781	0.858734
 21.1821	0.858734
 21.1861	0.858734
 21.1901	0.858735
 21.1941	0.858735
 21.1981	0.858735
 21.2021	0.858736
 21.2061	0.858736
 21.2101	0.858736
 21.2141	0.858737
 21.2181	0.858737
 21.2221	0.858737
 21.2261	0.858737
 21.2301	0.858738
 21.2341	0.858738
 21.2381	0.858738
 21.2421	0.858739
 21.2461	0.858739
 21.2501	0.858739
 21.2541	0.858739
 21.2581	0.85874
 21.2621	0.85874
 21.2661	0.85874
 21.2701	0.858741
 21.2741	0.858741
 21.2781	0.858741
 21.2821	0.858742
 21.2861	0.858742
 21.2901	0.858742
 21.2941	0.858742
 21.2981	0.858743
 21.3021	0.858743
 21.3061	0.858743
 21.3101	0.858744
 21.3141	0.858744
 21.3181	0.858744
 21.3221	0.858744
 21.3261	0.858745
 21.3301	0.858745
 21.3341	0.858745
 21.3381	0.858746
 21.3421	0.858746
 21.3461	0.858746
 21.3501	0.858747
 21.3541	0.858747
 21.3581	0.858747
 21.3621	0.858747
 21.3661	0.858748
 21.3701	0.858748
 21.3741	0.858748
 21.3781	0.858749
 21.3821	0.858749
 21.3861	0.858749
 21.3901	0.858749
 21.3941	0.85875
 21.3981	0.85875
 21.4021	0.85875
 21.4061	0.858751
 21.4101	0.858751
 21.4141	0.858751
 21.4181	0.858752
 21.4221	0.858752
 21.4261	0.858752
 21.4301	0.858752
 21.4341	0.858753
 21.4381	0.858753
 21.4421	0.858753
 21.4461	0.858754
 21.4501	0.858754
 21.4541	0.858754
 21.4581	0.858754
 21.4621	0.858755
 21.4661	0.858755
 21.4701	0.858755
 21.4741	0.858756
 21.4781	0.858756
 21.4821	0.858756
 21.4861	0.858756
 21.4901	0.858757
 21.4941	0.858757
 21.4981	0.858757
 21.5022	0.858758
 21.5062	0.858758
 21.5102	0.858758
 21.5142	0.858759
 21.5182	0.858759
 21.5222	0.858759
 21.5262	0.858759
 21.5302	0.85876
 21.5342	0.85876
 21.5382	0.85876
 21.5422	0.858761
 21.5462	0.858761
 21.5502	0.858761
 21.5542	0.858761
 21.5582	0.858762
 21.5622	0.858762
 21.5662	0.858762
 21.5702	0.858763
 21.5742	0.858763
 21.5782	0.858763
 21.5822	0.858764
 21.5862	0.858764
 21.5902	0.858764
 21.5942	0.858764
 21.5982	0.858765
 21.6022	0.858765
 21.6062	0.858765
 21.6102	0.858766
 21.6142	0.858766
 21.6182	0.858766
 21.6222	0.858766
 21.6262	0.858767
 21.6302	0.858767
 21.6342	0.858767
 21.6382	0.858768
 21.6422	0.858768
 21.6462	0.858768
 21.6502	0.858768
 21.6542	0.858769
 21.6582	0.858769
 21.6622	0.858769
 21.6662	0.85877
 21.6702	0.85877
 21.6742	0.85877
 21.6782	0.858771
 21.6822	0.858771
 21.6862	0.858771
 21.6902	0.858771
 21.6942	0.858772
 21.6982	0.858772
 21.7022	0.858772
 21.7062	0.858773
 21.7102	0.858773
 21.7142	0.858773
 21.7182	0.858773
 21.7222	0.858774
 21.7262	0.858774
 21.7302	0.858774
 21.7342	0.858775
 21.7382	0.858775
 21.7422	0.858775
 21.7462	0.858776
 21.7502	0.858776
 21.7542	0.858776
 21.7582	0.858776
 21.7622	0.858777
 21.7662	0.858777
 21.7702	0.858777
 21.7742	0.858778
 21.7782	0.858778
 21.7822	0.858778
 21.7862	0.858778
 21.7902	0.858779
 21.7942	0.858779
 21.7982	0.858779
 21.8022	0.85878
 21.8062	0.85878
 21.8102	0.85878
 21.8142	0.85878
 21.8182	0.858781
 21.8222	0.858781
 21.8262	0.858781
 21.8302	0.858782
 21.8342	0.858782
 21.8382	0.858782
 21.8422	0.858783
 21.8462	0.858783
 21.8502	0.858783
 21.8542	0.858783
 21.8582	0.858784
 21.8622	0.858784
 21.8662	0.858784
 21.8702	0.858785
 21.8742	0.858785
 21.8782	0.858785
 21.8822	0.858785
 21.8862	0.858786
 21.8902	0.858786
 21.8942	0.858786
 21.8982	0.858787
 21.9022	0.858787
 21.9062	0.858787
 21.9102	0.858788
 21.9142	0.858788
 21.9182	0.858788
 21.9222	0.858788
 21.9262	0.858789
 21.9302	0.858789
 21.9342	0.858789
 21.9382	0.85879
 21.9422	0.85879
 21.9462	0.85879
 21.9502	0.85879
 21.9542	0.858791
 21.9582	0.858791
 21.9622	0.858791
 21.9662	0.858792
 21.9702	0.858792
 21.9742	0.858792
 21.9782	0.858792
 21.9822	0.858793
 21.9862	0.858793
 21.9902	0.858793
 21.9942	0.858794
 21.9982	0.858794
 22.0022	0.858794
 22.0062	0.858795
 22.0102	0.858795
 22.0142	0.858795
 22.0182	0.858795
 22.0222	0.858796
 22.0262	0.858796
 22.0302	0.858796
 22.0342	0.858797
 22.0382	0.858797
 22.0422	0.858797
 22.0462	0.858797
 22.0502	0.858798
 22.0542	0.858798
 22.0582	0.858798
 22.0622	0.858799
 22.0662	0.858799
 22.0702	0.858799
 22.0742	0.858799
 22.0782	0.8588
 22.0822	0.8588
 22.0862	0.8588
 22.0902	0.858801
 22.0942	0.858801
 22.0982	0.858801
 22.1022	0.858802
 22.1062	0.858802
 22.1102	0.858802
 22.1142	0.858802
 22.1182	0.858803
 22.1222	0.858803
 22.1262	0.858803
 22.1302	0.858804
 22.1342	0.858804
 22.1382	0.858804
 22.1422	0.858804
 22.1462	0.858805
 22.1502	0.858805
 22.1542	0.858805
 22.1582	0.858806
 22.1622	0.858806
 22.1662	0.858806
 22.1702	0.858806
 22.1742	0.858807
 22.1782	0.858807
 22.1822	0.858807
 22.1862	0.858808
 22.1902	0.858808
 22.1942	0.858808
 22.1982	0.858809
 22.2022	0.858809
 22.2062	0.858809
 22.2102	0.858809
 22.2142	0.85881
 22.2182	0.85881
 22.2222	0.85881
 22.2262	0.858811
 22.2302	0.858811
 22.2342	0.858811
 22.2382	0.858811
 22.2422	0.858812
 22.2462	0.858812
 22.2502	0.858812
 22.2542	0.858813
 22.2582	0.858813
 22.2622	0.858813
 22.2662	0.858813
 22.2702	0.858814
 22.2742	0.858814
 22.2782	0.858814
 22.2822	0.858815
 22.2862	0.858815
 22.2902	0.858815
 22.2942	0.858816
 22.2982	0.858816
 22.3022	0.858816
 22.3062	0.858816
 22.3102	0.858817
 22.3142	0.858817
 22.3182	0.858817
 22.3222	0.858818
 22.3262	0.858818
 22.3302	0.858818
 22.3342	0.858818
 22.3382	0.858819
 22.3422	0.858819
 22.3462	0.858819
 22.3502	0.85882
 22.3542	0.85882
 22.3582	0.85882
 22.3622	0.85882
 22.3662	0.858821
 22.3702	0.858821
 22.3742	0.858821
 22.3782	0.858822
 22.3822	0.858822
 22.3862	0.858822
 22.3902	0.858823
 22.3942	0.858823
 22.3982	0.858823
 22.4022	0.858823
 22.4062	0.858824
 22.4102	0.858824
 22.4142	0.858824
 22.4182	0.858825
 22.4222	0.858825
 22.4262	0.858825
 22.4302	0.858825
 22.4342	0.858826
 22.4382	0.858826
 22.4422	0.858826
 22.4462	0.858827
 22.4502	0.858827
 22.4542	0.858827
 22.4582	0.858827
 22.4622	0.858828
 22.4662	0.858828
 22.4702	0.858828
 22.4742	0.858829
 22.4782	0.858829
 22.4822	0.858829
 22.4862	0.85883
 22.4902	0.85883
 22.4942	0.85883
 22.4982	0.85883
 22.5023	0.858831
 22.5063	0.858831
 22.5103	0.858831
 22.5143	0.858832
 22.5183	0.858832
 22.5223	0.858832
 22.5263	0.858832
 22.5303	0.858833
 22.5343	0.858833
 22.5383	0.858833
 22.5423	0.858834
 22.5463	0.858834
 22.5503	0.858834
 22.5543	0.858834
 22.5583	0.858835
 22.5623	0.858835
 22.5663	0.858835
 22.5703	0.858836
 22.5743	0.858836
 22.5783	0.858836
 22.5823	0.858837
 22.5863	0.858837
 22.5903	0.858837
 22.5943	0.858837
 22.5983	0.858838
 22.6023	0.858838
 22.6063	0.858838
 22.6103	0.858839
 22.6143	0.858839
 22.6183	0.858839
 22.6223	0.858839
 22.6263	0.85884
 22.6303	0.85884
 22.6343	0.85884
 22.6383	0.858841
 22.6423	0.858841
 22.6463	0.858841
 22.6503	0.858841
 22.6543	0.858842
 22.6583	0.858842
 22.6623	0.858842
 22.6663	0.858843
 22.6703	0.858843
 22.6743	0.858843
 22.6783	0.858844
 22.6823	0.858844
 22.6863	0.858844
 22.6903	0.858844
 22.6943	0.858845
 22.6983	0.858845
 22.7023	0.858845
 22.7063	0.858846
 22.7103	0.858846
 22.7143	0.858846
 22.7183	0.858846
 22.7223	0.858847
 22.7263	0.858847
 22.7303	0.858847
 22.7343	0.858848
 22.7383	0.858848
 22.7423	0.858848
 22.7463	0.858848
 22.7503	0.858849
 22.7543	0.858849
 22.7583	0.858849
 22.7623	0.85885
 22.7663	0.85885
 22.7703	0.85885
 22.7743	0.858851
 22.7783	0.858851
 22.7823	0.858851
 22.7863	0.858851
 22.7903	0.858852
 22.7943	0.858852
 22.7983	0.858852
 22.8023	0.858853
 22.8063	0.858853
 22.8103	0.858853
 22.8143	0.858853
 22.8183	0.858854
 22.8223	0.858854
 22.8263	0.858854
 22.8303	0.858855
 22.8343	0.858855
 22.8383	0.858855
 22.8423	0.858855
 22.8463	0.858856
 22.8503	0.858856
 22.8543	0.858856
 22.8583	0.858857
 22.8623	0.858857
 22.8663	0.858857
 22.8703	0.858858
 22.8743	0.858858
 22.8783	0.858858
 22.8823	0.858858
 22.8863	0.858859
 22.8903	0.858859
 22.8943	0.858859
 22.8983	0.85886
 22.9023	0.85886
 22.9063	0.85886
 22.9103	0.85886
 22.9143	0.858861
 22.9183	0.858861
 22.9223	0.858861
 22.9263	0.858862
 22.9303	0.858862
 22.9343	0.858862
 22.9383	0.858862
 22.9423	0.858863
 22.9463	0.858863
 22.9503	0.858863
 22.9543	0.858864
 22.9583	0.858864
 22.9623	0.858864
 22.9663	0.858864
 22.9703	0.858865
 22.9743	0.858865
 22.9783	0.858865
 22.9823	0.858866
 22.9863	0.858866
 22.9903	0.858866
 22.9943	0.858867
 22.9983	0.858867
 23.0023	0.858867
 23.0063	0.858867
 23.0103	0.858868
 23.0143	0.858868
 23.0183	0.858868
 23.0223	0.858869
 23.0263	0.858869
 23.0303	0.858869
 23.0343	0.858869
 23.0383	0.85887
 23.0423	0.85887
 23.0463	0.85887
 23.0503	0.858871
 23.0543	0.858871
 23.0583	0.858871
 23.0623	0.858871
 23.0663	0.858872
 23.0703	0.858872
 23.0743	0.858872
 23.0783	0.858873
 23.0823	0.858873
 23.0863	0.858873
 23.0903	0.858874
 23.0943	0.858874
 23.0983	0.858874
 23.1023	0.858874
 23.1063	0.858875
 23.1103	0.858875
 23.1143	0.858875
 23.1183	0.858876
 23.1223	0.858876
 23.1263	0.858876
 23.1303	0.858876
 23.1343	0.858877
 23.1383	0.858877
 23.1423	0.858877
 23.1463	0.858878
 23.1503	0.858878
 23.1543	0.858878
 23.1583	0.858878
 23.1623	0.858879
 23.1663	0.858879
 23.1703	0.858879
 23.1743	0.85888
 23.1783	0.85888
 23.1823	0.85888
 23.1863	0.858881
 23.1903	0.858881
 23.1943	0.858881
 23.1983	0.858881
 23.2023	0.858882
 23.2063	0.858882
 23.2103	0.858882
 23.2143	0.858883
 23.2183	0.858883
 23.2223	0.858883
 23.2263	0.858883
 23.2303	0.858884
 23.2343	0.858884
 23.2383	0.858884
 23.2423	0.858885
 23.2463	0.858885
 23.2503	0.858885
 23.2543	0.858885
 23.2583	0.858886
 23.2623	0.858886
 23.2663	0.858886
 23.2703	0.858887
 23.2743	0.858887
 23.2783	0.858887
 23.2823	0.858887
 23.2863	0.858888
 23.2903	0.858888
 23.2943	0.858888
 23.2983	0.858889
 23.3023	0.858889
 23.3063	0.858889
 23.3103	0.85889
 23.3143	0.85889
 23.3183	0.85889
 23.3223	0.85889
 23.3263	0.858891
 23.3303	0.858891
 23.3343	0.858891
 23.3383	0.858892
 23.3423	0.858892
 23.3463	0.858892
 23.3503	0.858892
 23.3543	0.858893
 23.3583	0.858893
 23.3623	0.858893
 23.3663	0.858894
 23.3703	0.858894
 23.3743	0.858894
 23.3783	0.858894
 23.3823	0.858895
 23.3863	0.858895
 23.3903	0.858895
 23.3943	0.858896
 23.3983	0.858896
 23.4023	0.858896
 23.4063	0.858897
 23.4103	0.858897
 23.4143	0.858897
 23.4183	0.858897
 23.4223	0.858898
 23.4263	0.858898
 23.4303	0.858898
 23.4343	0.858899
 23.4383	0.858899
 23.4423	0.858899
 23.4463	0.858899
 23.4503	0.8589
 23.4543	0.8589
 23.4583	0.8589
 23.4623	0.858901
 23.4663	0.858901
 23.4703	0.858901
 23.4743	0.858901
 23.4783	0.858902
 23.4823	0.858902
 23.4863	0.858902
 23.4903	0.858903
 23.4943	0.858903
 23.4983	0.858903
 23.5024	0.858903
 23.5064	0.858904
 23.5104	0.858904
 23.5144	0.858904
 23.5184	0.858905
 23.5224	0.858905
 23.5264	0.858905
 23.5304	0.858906
 23.5344	0.858906
 23.5384	0.858906
 23.5424	0.858906
 23.5464	0.858907
 23.5504	0.858907
 23.5544	0.858907
 23.5584	0.858908
 23.5624	0.858908
 23.5664	0.858908
 23.5704	0.858908
 23.5744	0.858909
 23.5784	0.858909
 23.5824	0.858909
 23.5864	0.85891
 23.5904	0.85891
 23.5944	0.85891
 23.5984	0.85891
 23.6024	0.858911
 23.6064	0.858911
 23.6104	0.858911
 23.6144	0.858912
 23.6184	0.858912
 23.6224	0.858912
 23.6264	0.858913
 23.6304	0.858913
 23.6344	0.858913
 23.6384	0.858913
 23.6424	0.858914
 23.6464	0.858914
 23.6504	0.858914
 23.6544	0.858915
 23.6584	0.858915
 23.6624	0.858915
 23.6664	0.858915
 23.6704	0.858916
 23.6744	0.858916
 23.6784	0.858916
 23.6824	0.858917
 23.6864	0.858917
 23.6904	0.858917
 23.6944	0.858917
 23.6984	0.858918
 23.7024	0.858918
 23.7064	0.858918
 23.7104	0.858919
 23.7144	0.858919
 23.7184	0.858919
 23.7224	0.858919
 23.7264	0.85892
 23.7304	0.85892
 23.7344	0.85892
 23.7384	0.858921
 23.7424	0.858921
 23.7464	0.858921
 23.7504	0.858922
 23.7544	0.858922
 23.7584	0.858922
 23.7624	0.858922
 23.7664	0.858923
 23.7704	0.858923
 23.7744	0.858923
 23.7784	0.858924
 23.7824	0.858924
 23.7864	0.858924
 23.7904	0.858924
 23.7944	0.858925
 23.7984	0.858925
 23.8024	0.858925
 23.8064	0.858926
 23.8104	0.858926
 23.8144	0.858926
 23.8184	0.858926
 23.8224	0.858927
 23.8264	0.858927
 23.8304	0.858927
 23.8344	0.858928
 23.8384	0.858928
 23.8424	0.858928
 23.8464	0.858929
 23.8504	0.858929
 23.8544	0.858929
 23.8584	0.858929
 23.8624	0.85893
 23.8664	0.85893
 23.8704	0.85893
 23.8744	0.858931
 23.8784	0.858931
 23.8824	0.858931
 23.8864	0.858931
 23.8904	0.858932
 23.8944	0.858932
 23.8984	0.858932
 23.9024	0.858933
 23.9064	0.858933
 23.9104	0.858933
 23.9144	0.858933
 23.9184	0.858934
 23.9224	0.858934
 23.9264	0.858934
 23.9304	0.858935
 23.9344	0.858935
 23.9384	0.858935
 23.9424	0.858935
 23.9464	0.858936
 23.9504	0.858936
 23.9544	0.858936
 23.9584	0.858937
 23.9624	0.858937
 23.9664	0.858937
 23.9704	0.858938
 23.9744	0.858938
 23.9784	0.858938
 23.9824	0.858938
 23.9864	0.858939
 23.9904	0.858939
 23.9944	0.858939
 23.9984	0.85894
 24.0024	0.85894
 24.0064	0.85894
 24.0104	0.85894
 24.0144	0.858941
 24.0184	0.858941
 24.0224	0.858941
 24.0264	0.858942
 24.0304	0.858942
 24.0344	0.858942
 24.0384	0.858942
 24.0424	0.858943
 24.0464	0.858943
 24.0504	0.858943
 24.0544	0.858944
 24.0584	0.858944
 24.0624	0.858944
 24.0664	0.858945
 24.0704	0.858945
 24.0744	0.858945
 24.0784	0.858945
 24.0824	0.858946
 24.0864	0.858946
 24.0904	0.858946
 24.0944	0.858947
 24.0984	0.858947
 24.1024	0.858947
 24.1064	0.858947
 24.1104	0.858948
 24.1144	0.858948
 24.1184	0.858948
 24.1224	0.858949
 24.1264	0.858949
 24.1304	0.858949
 24.1344	0.858949
 24.1384	0.85895
 24.1424	0.85895
 24.1464	0.85895
 24.1504	0.858951
 24.1544	0.858951
 24.1584	0.858951
 24.1624	0.858951
 24.1664	0.858952
 24.1704	0.858952
 24.1744	0.858952
 24.1784	0.858953
 24.1824	0.858953
 24.1864	0.858953
 24.1904	0.858954
 24.1944	0.858954
 24.1984	0.858954
 24.2024	0.858954
 24.2064	0.858955
 24.2104	0.858955
 24.2144	0.858955
 24.2184	0.858956
 24.2224	0.858956
 24.2264	0.858956
 24.2304	0.858956
 24.2344	0.858957
 24.2384	0.858957
 24.2424	0.858957
 24.2464	0.858958
 24.2504	0.858958
 24.2544	0.858958
 24.2584	0.858958
 24.2624	0.858959
 24.2664	0.858959
 24.2704	0.858959
 24.2744	0.85896
 24.2784	0.85896
 24.2824	0.85896
 24.2864	0.85896
 24.2904	0.858961
 24.2944	0.858961
 24.2984	0.858961
 24.3024	0.858962
 24.3064	0.858962
 24.3104	0.858962
 24.3144	0.858963
 24.3184	0.858963
 24.3224	0.858963
 24.3264	0.858963
 24.3304	0.858964
 24.3344	0.858964
 24.3384	0.858964
 24.3424	0.858965
 24.3464	0.858965
 24.3504	0.858965
 24.3544	0.858965
 24.3584	0.858966
 24.3624	0.858966
 24.3664	0.858966
 24.3704	0.858967
 24.3744	0.858967
 24.3784	0.858967
 24.3824	0.858967
 24.3864	0.858968
 24.3904	0.858968
 24.3944	0.858968
 24.3984	0.858969
 24.4024	0.858969
 24.4064	0.858969
 24.4104	0.858969
 24.4144	0.85897
 24.4184	0.85897
 24.4224	0.85897
 24.4264	0.858971
 24.4304	0.858971
 24.4344	0.858971
 24.4384	0.858972
 24.4424	0.858972
 24.4464	0.858972
 24.4504	0.858972
 24.4544	0.858973
 24.4584	0.858973
 24.4624	0.858973
 24.4664	0.858974
 24.4704	0.858974
 24.4744	0.858974
 24.4784	0.858974
 24.4824	0.858975
 24.4864	0.858975
 24.4904	0.858975
 24.4944	0.858976
 24.4984	0.858976
 24.5025	0.858976
 24.5065	0.858976
 24.5105	0.858977
 24.5145	0.858977
 24.5185	0.858977
 24.5225	0.858978
 24.5265	0.858978
 24.5305	0.858978
 24.5345	0.858979
 24.5385	0.858979
 24.5425	0.858979
 24.5465	0.858979
 24.5505	0.85898
 24.5545	0.85898
 24.5585	0.85898
 24.5625	0.858981
 24.5665	0.858981
 24.5705	0.858981
 24.5745	0.858981
 24.5785	0.858982
 24.5825	0.858982
 24.5865	0.858982
 24.5905	0.858983
 24.5945	0.858983
 24.5985	0.858983
 24.6025	0.858983
 24.6065	0.858984
 24.6105	0.858984
 24.6145	0.858984
 24.6185	0.858985
 24.6225	0.858985
 24.6265	0.858985
 24.6305	0.858985
 24.6345	0.858986
 24.6385	0.858986
 24.6425	0.858986
 24.6465	0.858987
 24.6505	0.858987
 24.6545	0.858987
 24.6585	0.858988
 24.6625	0.858988
 24.6665	0.858988
 24.6705	0.858988
 24.6745	0.858989
 24.6785	0.858989
 24.6825	0.858989
 24.6865	0.85899
 24.6905	0.85899
 24.6945	0.85899
 24.6985	0.85899
 24.7025	0.858991
 24.7065	0.858991
 24.7105	0.858991
 24.7145	0.858992
 24.7185	0.858992
 24.7225	0.858992
 24.7265	0.858992
 24.7305	0.858993
 24.7345	0.858993
 24.7385	0.858993
 24.7425	0.858994
 24.7465	0.858994
 24.7505	0.858994
 24.7545	0.858994
 24.7585	0.858995
 24.7625	0.858995
 24.7665	0.858995
 24.7705	0.858996
 24.7745	0.858996
 24.7785	0.858996
 24.7825	0.858997
 24.7865	0.858997
 24.7905	0.858997
 24.7945	0.858997
 24.7985	0.858998
 24.8025	0.858998
 24.8065	0.858998
 24.8105	0.858999
 24.8145	0.858999
 24.8185	0.858999
 24.8225	0.858999
 24.8265	0.859
 24.8305	0.859
 24.8345	0.859
 24.8385	0.859001
 24.8425	0.859001
 24.8465	0.859001
 24.8505	0.859001
 24.8545	0.859002
 24.8585	0.859002
 24.8625	0.859002
 24.8665	0.859003
 24.8705	0.859003
 24.8745	0.859003
 24.8785	0.859003
 24.8825	0.859004
 24.8865	0.859004
 24.8905	0.859004
 24.8945	0.859005
 24.8985	0.859005
 24.9025	0.859005
 24.9065	0.859006
 24.9105	0.859006
 24.9145	0.859006
 24.9185	0.859006
 24.9225	0.859007
 24.9265	0.859007
 24.9305	0.859007
 24.9345	0.859008
 24.9385	0.859008
 24.9425	0.859008
 24.9465	0.859008
 24.9505	0.859009
 24.9545	0.859009
 24.9585	0.859009
 24.9625	0.85901
 24.9665	0.85901
 24.9705	0.85901
 24.9745	0.85901
 24.9785	0.859011
 24.9825	0.859011
 24.9865	0.859011
 24.9905	0.859012
 24.9945	0.859012
 24.9985	0.859012
 25.0025	0.859013
 25.0065	0.859013
 25.0105	0.859013
 25.0145	0.859014
 25.0185	0.859014
 25.0225	0.859015
 25.0265	0.859015
 25.0305	0.859016
 25.0345	0.859016
 25.0385	0.859017
 25.0425	0.859017
 25.0465	0.859017
 25.0505	0.859018
 25.0545	0.859018
 25.0585	0.859019
 25.0625	0.859019
 25.0665	0.85902
 25.0705	0.85902
 25.0745	0.85902
 25.0785	0.859021
 25.0825	0.859021
 25.0865	0.859022
 25.0905	0.859022
 25.0945	0.859023
 25.0985	0.859023
 25.1025	0.859023
 25.1065	0.859024
 25.1105	0.859024
 25.1145	0.859025
 25.1185	0.859025
 25.1225	0.859026
 25.1265	0.859026
 25.1305	0.859027
 25.1345	0.859027
 25.1385	0.859027
 25.1425	0.859028
 25.1465	0.859028
 25.1505	0.859029
 25.1545	0.859029
 25.1585	0.85903
 25.1625	0.85903
 25.1665	0.85903
 25.1705	0.859031
 25.1745	0.859031
 25.1785	0.859032
 25.1825	0.859032
 25.1865	0.859033
 25.1905	0.859033
 25.1945	0.859034
 25.1985	0.859034
 25.2025	0.859034
 25.2065	0.859035
 25.2105	0.859035
 25.2145	0.859036
 25.2185	0.859036
 25.2225	0.859037
 25.2265	0.859037
 25.2305	0.859037
 25.2345	0.859038
 25.2385	0.859038
 25.2425	0.859039
 25.2465	0.859039
 25.2505	0.85904
 25.2545	0.85904
 25.2585	0.85904
 25.2625	0.859041
 25.2665	0.859041
 25.2705	0.859042
 25.2745	0.859042
 25.2785	0.859043
 25.2825	0.859043
 25.2865	0.859044
 25.2905	0.859044
 25.2945	0.859044
 25.2985	0.859045
 25.3025	0.859045
 25.3065	0.859046
 25.3105	0.859046
 25.3145	0.859047
 25.3185	0.859047
 25.3225	0.859047
 25.3265	0.859048
 25.3305	0.859048
 25.3345	0.859049
 25.3385	0.859049
 25.3425	0.85905
 25.3465	0.85905
 25.3505	0.859051
 25.3545	0.859051
 25.3585	0.859051
 25.3625	0.859052
 25.3665	0.859052
 25.3705	0.859053
 25.3745	0.859053
 25.3785	0.859054
 25.3825	0.859054
 25.3865	0.859054
 25.3905	0.859055
 25.3945	0.859055
 25.3985	0.859056
 25.4025	0.859056
 25.4065	0.859057
 25.4105	0.859057
 25.4145	0.859057
 25.4185	0.859058
 25.4225	0.859058
 25.4265	0.859059
 25.4305	0.859059
 25.4345	0.85906
 25.4385	0.85906
 25.4425	0.859061
 25.4465	0.859061
 25.4505	0.859061
 25.4545	0.859062
 25.4585	0.859062
 25.4625	0.859063
 25.4665	0.859063
 25.4705	0.859064
 25.4745	0.859064
 25.4785	0.859064
 25.4825	0.859065
 25.4865	0.859065
 25.4905	0.859066
 25.4945	0.859066
 25.4985	0.859067
 25.5026	0.859067
 25.5066	0.859067
 25.5106	0.859068
 25.5146	0.859068
 25.5186	0.859069
 25.5226	0.859069
 25.5266	0.85907
 25.5306	0.85907
 25.5346	0.859071
 25.5386	0.859071
 25.5426	0.859071
 25.5466	0.859072
 25.5506	0.859072
 25.5546	0.859073
 25.5586	0.859073
 25.5626	0.859074
 25.5666	0.859074
 25.5706	0.859074
 25.5746	0.859075
 25.5786	0.859075
 25.5826	0.859076
 25.5866	0.859076
 25.5906	0.859077
 25.5946	0.859077
 25.5986	0.859078
 25.6026	0.859078
 25.6066	0.859078
 25.6106	0.859079
 25.6146	0.859079
 25.6186	0.85908
 25.6226	0.85908
 25.6266	0.859081
 25.6306	0.859081
 25.6346	0.859081
 25.6386	0.859082
 25.6426	0.859082
 25.6466	0.859083
 25.6506	0.859083
 25.6546	0.859084
 25.6586	0.859084
 25.6626	0.859084
 25.6666	0.859085
 25.6706	0.859085
 25.6746	0.859086
 25.6786	0.859086
 25.6826	0.859087
 25.6866	0.859087
 25.6906	0.859088
 25.6946	0.859088
 25.6986	0.859088
 25.7026	0.859089
 25.7066	0.859089
 25.7106	0.85909
 25.7146	0.85909
 25.7186	0.859091
 25.7226	0.859091
 25.7266	0.859091
 25.7306	0.859092
 25.7346	0.859092
 25.7386	0.859093
 25.7426	0.859093
 25.7466	0.859094
 25.7506	0.859094
 25.7546	0.859095
 25.7586	0.859095
 25.7626	0.859095
 25.7666	0.859096
 25.7706	0.859096
 25.7746	0.859097
 25.7786	0.859097
 25.7826	0.859098
 25.7866	0.859098
 25.7906	0.859098
 25.7946	0.859099
 25.7986	0.859099
 25.8026	0.8591
 25.8066	0.8591
 25.8106	0.859101
 25.8146	0.859101
 25.8186	0.859101
 25.8226	0.859102
 25.8266	0.859102
 25.8306	0.859103
 25.8346	0.859103
 25.8386	0.859104
 25.8426	0.859104
 25.8466	0.859105
 25.8506	0.859105
 25.8546	0.859105
 25.8586	0.859106
 25.8626	0.859106
 25.8666	0.859107
 25.8706	0.859107
 25.8746	0.859108
 25.8786	0.859108
 25.8826	0.859108
 25.8866	0.859109
 25.8906	0.859109
 25.8946	0.85911
 25.8986	0.85911
 25.9026	0.859111
 25.9066	0.859111
 25.9106	0.859111
 25.9146	0.859112
 25.9186	0.859112
 25.9226	0.859113
 25.9266	0.859113
 25.9306	0.859114
 25.9346	0.859114
 25.9386	0.859115
 25.9426	0.859115
 25.9466	0.859115
 25.9506	0.859116
 25.9546	0.859116
 25.9586	0.859117
 25.9626	0.859117
 25.9666	0.859118
 25.9706	0.859118
 25.9746	0.859118
 25.9786	0.859119
 25.9826	0.859119
 25.9866	0.85912
 25.9906	0.85912
 25.9946	0.859121
 25.9986	0.859121
 26.0026	0.859122
 26.0066	0.859122
 26.0106	0.859122
 26.0146	0.859123
 26.0186	0.859123
 26.0226	0.859124
 26.0266	0.859124
 26.0306	0.859125
 26.0346	0.859125
 26.0386	0.859125
 26.0426	0.859126
 26.0466	0.859126
 26.0506	0.859127
 26.0546	0.859127
 26.0586	0.859128
 26.0626	0.859128
 26.0666	0.859128
 26.0706	0.859129
 26.0746	0.859129
 26.0786	0.85913
 26.0826	0.85913
 26.0866	0.859131
 26.0906	0.859131
 26.0946	0.859132
 26.0986	0.859132
 26.1026	0.859132
 26.1066	0.859133
 26.1106	0.859133
 26.1146	0.859134
 26.1186	0.859134
 26.1226	0.859135
 26.1266	0.859135
 26.1306	0.859135
 26.1346	0.859136
 26.1386	0.859136
 26.1426	0.859137
 26.1466	0.859137
 26.1506	0.859138
 26.1546	0.859138
 26.1586	0.859139
 26.1626	0.859139
 26.1666	0.859139
 26.1706	0.85914
 26.1746	0.85914
 26.1786	0.859141
 26.1826	0.859141
 26.1866	0.859142
 26.1906	0.859142
 26.1946	0.859142
 26.1986	0.859143
 26.2026	0.859143
 26.2066	0.859144
 26.2106	0.859144
 26.2146	0.859145
 26.2186	0.859145
 26.2226	0.859145
 26.2266	0.859146
 26.2306	0.859146
 26.2346	0.859147
 26.2386	0.859147
 26.2426	0.859148
 26.2466	0.859148
 26.2506	0.859149
 26.2546	0.859149
 26.2586	0.859149
 26.2626	0.85915
 26.2666	0.85915
 26.2706	0.859151
 26.2746	0.859151
 26.2786	0.859152
 26.2826	0.859152
 26.2866	0.859152
 26.2906	0.859153
 26.2946	0.859153
 26.2986	0.859154
 26.3026	0.859154
 26.3066	0.859155
 26.3106	0.859155
 26.3146	0.859155
 26.3186	0.859156
 26.3226	0.859156
 26.3266	0.859157
 26.3306	0.859157
 26.3346	0.859158
 26.3386	0.859158
 26.3426	0.859159
 26.3466	0.859159
 26.3506	0.859159
 26.3546	0.85916
 26.3586	0.85916
 26.3626	0.859161
 26.3666	0.859161
 26.3706	0.859162
 26.3746	0.859162
 26.3786	0.859162
 26.3826	0.859163
 26.3866	0.859163
 26.3906	0.859164
 26.3946	0.859164
 26.3986	0.859165
 26.4026	0.859165
 26.4066	0.859166
 26.4106	0.859166
 26.4146	0.859166
 26.4186	0.859167
 26.4226	0.859167
 26.4266	0.859168
 26.4306	0.859168
 26.4346	0.859169
 26.4386	0.859169
 26.4426	0.859169
 26.4466	0.85917
 26.4506	0.85917
 26.4546	0.859171
 26.4586	0.859171
 26.4626	0.859172
 26.4666	0.859172
 26.4706	0.859172
 26.4746	0.859173
 26.4786	0.859173
 26.4826	0.859174
 26.4866	0.859174
 26.4906	0.859175
 26.4946	0.859175
 26.4986	0.859176
 26.5027	0.859176
 26.5067	0.859176
 26.5107	0.859177
 26.5147	0.859177
 26.5187	0.859178
 26.5227	0.859178
 26.5267	0.859179
 26.5307	0.859179
 26.5347	0.859179
 26.5387	0.85918
 26.5427	0.85918
 26.5467	0.859181
 26.5507	0.859181
 26.5547	0.859182
 26.5587	0.859182
 26.5627	0.859183
 26.5667	0.859183
 26.5707	0.859183
 26.5747	0.859184
 26.5787	0.859184
 26.5827	0.859185
 26.5867	0.859185
 26.5907	0.859186
 26.5947	0.859186
 26.5987	0.859186
 26.6027	0.859187
 26.6067	0.859187
 26.6107	0.859188
 26.6147	0.859188
 26.6187	0.859189
 26.6227	0.859189
 26.6267	0.859189
 26.6307	0.85919
 26.6347	0.85919
 26.6387	0.859191
 26.6427	0.859191
 26.6467	0.859192
 26.6507	0.859192
 26.6547	0.859193
 26.6587	0.859193
 26.6627	0.859193
 26.6667	0.859194
 26.6707	0.859194
 26.6747	0.859195
 26.6787	0.859195
 26.6827	0.859196
 26.6867	0.859196
 26.6907	0.859196
 26.6947	0.859197
 26.6987	0.859197
 26.7027	0.859198
 26.7067	0.859198
 26.7107	0.859199
 26.7147	0.859199
 26.7187	0.859199
 26.7227	0.8592
 26.7267	0.8592
 26.7307	0.859201
 26.7347	0.859201
 26.7387	0.859202
 26.7427	0.859202
 26.7467	0.859203
 26.7507	0.859203
 26.7547	0.859203
 26.7587	0.859204
 26.7627	0.859204
 26.7667	0.859205
 26.7707	0.859205
 26.7747	0.859206
 26.7787	0.859206
 26.7827	0.859206
 26.7867	0.859207
 26.7907	0.859207
 26.7947	0.859208
 26.7987	0.859208
 26.8027	0.859209
 26.8067	0.859209
 26.8107	0.85921
 26.8147	0.85921
 26.8187	0.85921
 26.8227	0.859211
 26.8267	0.859211
 26.8307	0.859212
 26.8347	0.859212
 26.8387	0.859213
 26.8427	0.859213
 26.8467	0.859213
 26.8507	0.859214
 26.8547	0.859214
 26.8587	0.859215
 26.8627	0.859215
 26.8667	0.859216
 26.8707	0.859216
 26.8747	0.859216
 26.8787	0.859217
 26.8827	0.859217
 26.8867	0.859218
 26.8907	0.859218
 26.8947	0.859219
 26.8987	0.859219
 26.9027	0.85922
 26.9067	0.85922
 26.9107	0.85922
 26.9147	0.859221
 26.9187	0.859221
 26.9227	0.859222
 26.9267	0.859222
 26.9307	0.859223
 26.9347	0.859223
 26.9387	0.859223
 26.9427	0.859224
 26.9467	0.859224
 26.9507	0.859225
 26.9547	0.859225
 26.9587	0.859226
 26.9627	0.859226
 26.9667	0.859227
 26.9707	0.859227
 26.9747	0.859227
 26.9787	0.859228
 26.9827	0.859228
 26.9867	0.859229
 26.9907	0.859229
 26.9947	0.85923
 26.9987	0.85923
 27.0027	0.85923
 27.0067	0.859231
 27.0107	0.859231
 27.0147	0.859232
 27.0187	0.859232
 27.0227	0.859233
 27.0267	0.859233
 27.0307	0.859233
 27.0347	0.859234
 27.0387	0.859234
 27.0427	0.859235
 27.0467	0.859235
 27.0507	0.859236
 27.0547	0.859236
 27.0587	0.859237
 27.0627	0.859237
 27.0667	0.859237
 27.0707	0.859238
 27.0747	0.859238
 27.0787	0.859239
 27.0827	0.859239
 27.0867	0.85924
 27.0907	0.85924
 27.0947	0.85924
 27.0987	0.859241
 27.1027	0.859241
 27.1067	0.859242
 27.1107	0.859242
 27.1147	0.859243
 27.1187	0.859243
 27.1227	0.859243
 27.1267	0.859244
 27.1307	0.859244
 27.1347	0.859245
 27.1387	0.859245
 27.1427	0.859246
 27.1467	0.859246
 27.1507	0.859247
 27.1547	0.859247
 27.1587	0.859247
 27.1627	0.859248
 27.1667	0.859248
 27.1707	0.859249
 27.1747	0.859249
 27.1787	0.85925
 27.1827	0.85925
 27.1867	0.85925
 27.1907	0.859251
 27.1947	0.859251
 27.1987	0.859252
 27.2027	0.859252
 27.2067	0.859253
 27.2107	0.859253
 27.2147	0.859254
 27.2187	0.859254
 27.2227	0.859254
 27.2267	0.859255
 27.2307	0.859255
 27.2347	0.859256
 27.2387	0.859256
 27.2427	0.859257
 27.2467	0.859257
 27.2507	0.859257
 27.2547	0.859258
 27.2587	0.859258
 27.2627	0.859259
 27.2667	0.859259
 27.2707	0.85926
 27.2747	0.85926
 27.2787	0.85926
 27.2827	0.859261
 27.2867	0.859261
 27.2907	0.859262
 27.2947	0.859262
 27.2987	0.859263
 27.3027	0.859263
 27.3067	0.859264
 27.3107	0.859264
 27.3147	0.859264
 27.3187	0.859265
 27.3227	0.859265
 27.3267	0.859266
 27.3307	0.859266
 27.3347	0.859267
 27.3387	0.859267
 27.3427	0.859267
 27.3467	0.859268
 27.3507	0.859268
 27.3547	0.859269
 27.3587	0.859269
 27.3627	0.85927
 27.3667	0.85927
 27.3707	0.85927
 27.3747	0.859271
 27.3787	0.859271
 27.3827	0.859272
 27.3867	0.859272
 27.3907	0.859273
 27.3947	0.859273
 27.3987	0.859274
 27.4027	0.859274
 27.4067	0.859274
 27.4107	0.859275
 27.4147	0.859275
 27.4187	0.859276
 27.4227	0.859276
 27.4267	0.859277
 27.4307	0.859277
 27.4347	0.859277
 27.4387	0.859278
 27.4427	0.859278
 27.4467	0.859279
 27.4507	0.859279
 27.4547	0.85928
 27.4587	0.85928
 27.4627	0.859281
 27.4667	0.859281
 27.4707	0.859281
 27.4747	0.859282
 27.4787	0.859282
 27.4827	0.859283
 27.4867	0.859283
 27.4907	0.859284
 27.4947	0.859284
 27.4987	0.859284
 27.5028	0.859285
 27.5068	0.859285
 27.5108	0.859286
 27.5148	0.859286
 27.5188	0.859287
 27.5228	0.859287
 27.5268	0.859287
 27.5308	0.859288
 27.5348	0.859288
 27.5388	0.859289
 27.5428	0.859289
 27.5468	0.85929
 27.5508	0.85929
 27.5548	0.859291
 27.5588	0.859291
 27.5628	0.859291
 27.5668	0.859292
 27.5708	0.859292
 27.5748	0.859293
 27.5788	0.859293
 27.5828	0.859294
 27.5868	0.859294
 27.5908	0.859294
 27.5948	0.859295
 27.5988	0.859295
 27.6028	0.859296
 27.6068	0.859296
 27.6108	0.859297
 27.6148	0.859297
 27.6188	0.859298
 27.6228	0.859298
 27.6268	0.859298
 27.6308	0.859299
 27.6348	0.859299
 27.6388	0.8593
 27.6428	0.8593
 27.6468	0.859301
 27.6508	0.859301
 27.6548	0.859301
 27.6588	0.859302
 27.6628	0.859302
 27.6668	0.859303
 27.6708	0.859303
 27.6748	0.859304
 27.6788	0.859304
 27.6828	0.859304
 27.6868	0.859305
 27.6908	0.859305
 27.6948	0.859306
 27.6988	0.859306
 27.7028	0.859307
 27.7068	0.859307
 27.7108	0.859308
 27.7148	0.859308
 27.7188	0.859308
 27.7228	0.859309
 27.7268	0.859309
 27.7308	0.85931
 27.7348	0.85931
 27.7388	0.859311
 27.7428	0.859311
 27.7468	0.859311
 27.7508	0.859312
 27.7548	0.859312
 27.7588	0.859313
 27.7628	0.859313
 27.7668	0.859314
 27.7708	0.859314
 27.7748	0.859314
 27.7788	0.859315
 27.7828	0.859315
 27.7868	0.859316
 27.7908	0.859316
 27.7948	0.859317
 27.7988	0.859317
 27.8028	0.859318
 27.8068	0.859318
 27.8108	0.859318
 27.8148	0.859319
 27.8188	0.859319
 27.8228	0.85932
 27.8268	0.85932
 27.8308	0.859321
 27.8348	0.859321
 27.8388	0.859321
 27.8428	0.859322
 27.8468	0.859322
 27.8508	0.859323
 27.8548	0.859323
 27.8588	0.859324
 27.8628	0.859324
 27.8668	0.859325
 27.8708	0.859325
 27.8748	0.859325
 27.8788	0.859326
 27.8828	0.859326
 27.8868	0.859327
 27.8908	0.859327
 27.8948	0.859328
 27.8988	0.859328
 27.9028	0.859328
 27.9068	0.859329
 27.9108	0.859329
 27.9148	0.85933
 27.9188	0.85933
 27.9228	0.859331
 27.9268	0.859331
 27.9308	0.859331
 27.9348	0.859332
 27.9388	0.859332
 27.9428	0.859333
 27.9468	0.859333
 27.9508	0.859334
 27.9548	0.859334
 27.9588	0.859335
 27.9628	0.859335
 27.9668	0.859335
 27.9708	0.859336
 27.9748	0.859336
 27.9788	0.859337
 27.9828	0.859337
 27.9868	0.859338
 27.9908	0.859338
 27.9948	0.859338
 27.9988	0.859339
 28.0028	0.859339
 28.0068	0.85934
 28.0108	0.85934
 28.0148	0.859341
 28.0188	0.859341
 28.0228	0.859342
 28.0268	0.859342
 28.0308	0.859342
 28.0348	0.859343
 28.0388	0.859343
 28.0428	0.859344
 28.0468	0.859344
 28.0508	0.859345
 28.0548	0.859345
 28.0588	0.859345
 28.0628	0.859346
 28.0668	0.859346
 28.0708	0.859347
 28.0748	0.859347
 28.0788	0.859348
 28.0828	0.859348
 28.0868	0.859348
 28.0908	0.859349
 28.0948	0.859349
 28.0988	0.85935
 28.1028	0.85935
 28.1068	0.859351
 28.1108	0.859351
 28.1148	0.859352
 28.1188	0.859352
 28.1228	0.859352
 28.1268	0.859353
 28.1308	0.859353
 28.1348	0.859354
 28.1388	0.859354
 28.1428	0.859355
 28.1468	0.859355
 28.1508	0.859355
 28.1548	0.859356
 28.1588	0.859356
 28.1628	0.859357
 28.1668	0.859357
 28.1708	0.859358
 28.1748	0.859358
 28.1788	0.859358
 28.1828	0.859359
 28.1868	0.859359
 28.1908	0.85936
 28.1948	0.85936
 28.1988	0.859361
 28.2028	0.859361
 28.2068	0.859362
 28.2108	0.859362
 28.2148	0.859362
 28.2188	0.859363
 28.2228	0.859363
 28.2268	0.859364
 28.2308	0.859364
 28.2348	0.859365
 28.2388	0.859365
 28.2428	0.859365
 28.2468	0.859366
 28.2508	0.859366
 28.2548	0.859367
 28.2588	0.859367
 28.2628	0.859368
 28.2668	0.859368
 28.2708	0.859369
 28.2748	0.859369
 28.2788	0.859369
 28.2828	0.85937
 28.2868	0.85937
 28.2908	0.859371
 28.2948	0.859371
 28.2988	0.859372
 28.3028	0.859372
 28.3068	0.859372
 28.3108	0.859373
 28.3148	0.859373
 28.3188	0.859374
 28.3228	0.859374
 28.3268	0.859375
 28.3308	0.859375
 28.3348	0.859375
 28.3388	0.859376
 28.3428	0.859376
 28.3468	0.859377
 28.3508	0.859377
 28.3548	0.859378
 28.3588	0.859378
 28.3628	0.859379
 28.3668	0.859379
 28.3708	0.859379
 28.3748	0.85938
 28.3788	0.85938
 28.3828	0.859381
 28.3868	0.859381
 28.3908	0.859382
 28.3948	0.859382
 28.3988	0.859382
 28.4028	0.859383
 28.4068	0.859383
 28.4108	0.859384
 28.4148	0.859384
 28.4188	0.859385
 28.4228	0.859385
 28.4268	0.859385
 28.4308	0.859386
 28.4348	0.859386
 28.4388	0.859387
 28.4428	0.859387
 28.4468	0.859388
 28.4508	0.859388
 28.4548	0.859389
 28.4588	0.859389
 28.4628	0.859389
 28.4668	0.85939
 28.4708	0.85939
 28.4748	0.859391
 28.4788	0.859391
 28.4828	0.859392
 28.4868	0.859392
 28.4908	0.859392
 28.4948	0.859393
 28.4988	0.859393
 28.5029	0.859394
 28.5069	0.859394
 28.5109	0.859395
 28.5149	0.859395
 28.5189	0.859396
 28.5229	0.859396
 28.5269	0.859396
 28.5309	0.859397
 28.5349	0.859397
 28.5389	0.859398
 28.5429	0.859398
 28.5469	0.859399
 28.5509	0.859399
 28.5549	0.859399
 28.5589	0.8594
 28.5629	0.8594
 28.5669	0.859401
 28.5709	0.859401
 28.5749	0.859402
 28.5789	0.859402
 28.5829	0.859402
 28.5869	0.859403
 28.5909	0.859403
 28.5949	0.859404
 28.5989	0.859404
 28.6029	0.859405
 28.6069	0.859405
 28.6109	0.859406
 28.6149	0.859406
 28.6189	0.859406
 28.6229	0.859407
 28.6269	0.859407
 28.6309	0.859408
 28.6349	0.859408
 28.6389	0.859409
 28.6429	0.859409
 28.6469	0.859409
 28.6509	0.85941
 28.6549	0.85941
 28.6589	0.859411
 28.6629	0.859411
 28.6669	0.859412
 28.6709	0.859412
 28.6749	0.859413
 28.6789	0.859413
 28.6829	0.859413
 28.6869	0.859414
 28.6909	0.859414
 28.6949	0.859415
 28.6989	0.859415
 28.7029	0.859416
 28.7069	0.859416
 28.7109	0.859416
 28.7149	0.859417
 28.7189	0.859417
 28.7229	0.859418
 28.7269	0.859418
 28.7309	0.859419
 28.7349	0.859419
 28.7389	0.859419
 28.7429	0.85942
 28.7469	0.85942
 28.7509	0.859421
 28.7549	0.859421
 28.7589	0.859422
 28.7629	0.859422
 28.7669	0.859423
 28.7709	0.859423
 28.7749	0.859423
 28.7789	0.859424
 28.7829	0.859424
 28.7869	0.859425
 28.7909	0.859425
 28.7949	0.859426
 28.7989	0.859426
 28.8029	0.859426
 28.8069	0.859427
 28.8109	0.859427
 28.8149	0.859428
 28.8189	0.859428
 28.8229	0.859429
 28.8269	0.859429
 28.8309	0.859429
 28.8349	0.85943
 28.8389	0.85943
 28.8429	0.859431
 28.8469	0.859431
 28.8509	0.859432
 28.8549	0.859432
 28.8589	0.859433
 28.8629	0.859433
 28.8669	0.859433
 28.8709	0.859434
 28.8749	0.859434
 28.8789	0.859435
 28.8829	0.859435
 28.8869	0.859436
 28.8909	0.859436
 28.8949	0.859436
 28.8989	0.859437
 28.9029	0.859437
 28.9069	0.859438
 28.9109	0.859438
 28.9149	0.859439
 28.9189	0.859439
 28.9229	0.85944
 28.9269	0.85944
 28.9309	0.85944
 28.9349	0.859441
 28.9389	0.859441
 28.9429	0.859442
 28.9469	0.859442
 28.9509	0.859443
 28.9549	0.859443
 28.9589	0.859443
 28.9629	0.859444
 28.9669	0.859444
 28.9709	0.859445
 28.9749	0.859445
 28.9789	0.859446
 28.9829	0.859446
 28.9869	0.859446
 28.9909	0.859447
 28.9949	0.859447
 28.9989	0.859448
 29.0029	0.859448
 29.0069	0.859449
 29.0109	0.859449
 29.0149	0.85945
 29.0189	0.85945
 29.0229	0.85945
 29.0269	0.859451
 29.0309	0.859451
 29.0349	0.859452
 29.0389	0.859452
 29.0429	0.859453
 29.0469	0.859453
 29.0509	0.859453
 29.0549	0.859454
 29.0589	0.859454
 29.0629	0.859455
 29.0669	0.859455
 29.0709	0.859456
 29.0749	0.859456
 29.0789	0.859456
 29.0829	0.859457
 29.0869	0.859457
 29.0909	0.859458
 29.0949	0.859458
 29.0989	0.859459
 29.1029	0.859459
 29.1069	0.85946
 29.1109	0.85946
 29.1149	0.85946
 29.1189	0.859461
 29.1229	0.859461
 29.1269	0.859462
 29.1309	0.859462
 29.1349	0.859463
 29.1389	0.859463
 29.1429	0.859463
 29.1469	0.859464
 29.1509	0.859464
 29.1549	0.859465
 29.1589	0.859465
 29.1629	0.859466
 29.1669	0.859466
 29.1709	0.859467
 29.1749	0.859467
 29.1789	0.859467
 29.1829	0.859468
 29.1869	0.859468
 29.1909	0.859469
 29.1949	0.859469
 29.1989	0.85947
 29.2029	0.85947
 29.2069	0.85947
 29.2109	0.859471
 29.2149	0.859471
 29.2189	0.859472
 29.2229	0.859472
 29.2269	0.859473
 29.2309	0.859473
 29.2349	0.859473
 29.2389	0.859474
 29.2429	0.859474
 29.2469	0.859475
 29.2509	0.859475
 29.2549	0.859476
 29.2589	0.859476
 29.2629	0.859477
 29.2669	0.859477
 29.2709	0.859477
 29.2749	0.859478
 29.2789	0.859478
 29.2829	0.859479
 29.2869	0.859479
 29.2909	0.85948
 29.2949	0.85948
 29.2989	0.85948
 29.3029	0.859481
 29.3069	0.859481
 29.3109	0.859482
 29.3149	0.859482
 29.3189	0.859483
 29.3229	0.859483
 29.3269	0.859484
 29.3309	0.859484
 29.3349	0.859484
 29.3389	0.859485
 29.3429	0.859485
 29.3469	0.859486
 29.3509	0.859486
 29.3549	0.859487
 29.3589	0.859487
 29.3629	0.859487
 29.3669	0.859488
 29.3709	0.859488
 29.3749	0.859489
 29.3789	0.859489
 29.3829	0.85949
 29.3869	0.85949
 29.3909	0.85949
 29.3949	0.859491
 29.3989	0.859491
 29.4029	0.859492
 29.4069	0.859492
 29.4109	0.859493
 29.4149	0.859493
 29.4189	0.859494
 29.4229	0.859494
 29.4269	0.859494
 29.4309	0.859495
 29.4349	0.859495
 29.4389	0.859496
 29.4429	0.859496
 29.4469	0.859497
 29.4509	0.859497
 29.4549	0.859497
 29.4589	0.859498
 29.4629	0.859498
 29.4669	0.859499
 29.4709	0.859499
 29.4749	0.8595
 29.4789	0.8595
 29.4829	0.8595
 29.4869	0.859501
 29.4909	0.859501
 29.4949	0.859502
 29.4989	0.859502
 29.503	0.859503
 29.507	0.859503
 29.511	0.859504
 29.515	0.859504
 29.519	0.859504
 29.523	0.859505
 29.527	0.859505
 29.531	0.859506
 29.535	0.859506
 29.539	0.859507
 29.543	0.859507
 29.547	0.859507
 29.551	0.859508
 29.555	0.859508
 29.559	0.859509
 29.563	0.859509
 29.567	0.85951
 29.571	0.85951
 29.575	0.859511
 29.579	0.859511
 29.583	0.859511
 29.587	0.859512
 29.591	0.859512
 29.595	0.859513
 29.599	0.859513
 29.603	0.859514
 29.607	0.859514
 29.611	0.859514
 29.615	0.859515
 29.619	0.859515
 29.623	0.859516
 29.627	0.859516
 29.631	0.859517
 29.635	0.859517
 29.639	0.859517
 29.643	0.859518
 29.647	0.859518
 29.651	0.859519
 29.655	0.859519
 29.659	0.85952
 29.663	0.85952
 29.667	0.859521
 29.671	0.859521
 29.675	0.859521
 29.679	0.859522
 29.683	0.859522
 29.687	0.859523
 29.691	0.859523
 29.695	0.859524
 29.699	0.859524
 29.703	0.859524
 29.707	0.859525
 29.711	0.859525
 29.715	0.859526
 29.719	0.859526
 29.723	0.859527
 29.727	0.859527
 29.731	0.859527
 29.735	0.859528
 29.739	0.859528
 29.743	0.859529
 29.747	0.859529
 29.751	0.85953
 29.755	0.85953
 29.759	0.859531
 29.763	0.859531
 29.767	0.859531
 29.771	0.859532
 29.775	0.859532
 29.779	0.859533
 29.783	0.859533
 29.787	0.859534
 29.791	0.859534
 29.795	0.859534
 29.799	0.859535
 29.803	0.859535
 29.807	0.859536
 29.811	0.859536
 29.815	0.859537
 29.819	0.859537
 29.823	0.859538
 29.827	0.859538
 29.831	0.859538
 29.835	0.859539
 29.839	0.859539
 29.843	0.85954
 29.847	0.85954
 29.851	0.859541
 29.855	0.859541
 29.859	0.859541
 29.863	0.859542
 29.867	0.859542
 29.871	0.859543
 29.875	0.859543
 29.879	0.859544
 29.883	0.859544
 29.887	0.859544
 29.891	0.859545
 29.895	0.859545
 29.899	0.859546
 29.903	0.859546
 29.907	0.859547
 29.911	0.859547
 29.915	0.859548
 29.919	0.859548
 29.923	0.859548
 29.927	0.859549
 29.931	0.859549
 29.935	0.85955
 29.939	0.85955
 29.943	0.859551
 29.947	0.859551
 29.951	0.859551
 29.955	0.859552
 29.959	0.859552
 29.963	0.859553
 29.967	0.859553
 29.971	0.859554
 29.975	0.859554
 29.979	0.859555
 29.983	0.859555
 29.987	0.859555
 29.991	0.859556
 29.995	0.859556
 29.999	0.859557
 30.003	0.859557
 30.007	0.859557
 30.011	0.859558
 30.015	0.859558
 30.019	0.859559
 30.023	0.859559
 30.027	0.859559
 30.031	0.85956
 30.035	0.85956
 30.039	0.85956
 30.043	0.859561
 30.047	0.859561
 30.051	0.859562
 30.055	0.859562
 30.059	0.859562
 30.063	0.859563
 30.067	0.859563
 30.071	0.859563
 30.075	0.859564
 30.079	0.859564
 30.083	0.859564
 30.087	0.859565
 30.091	0.859565
 30.095	0.859566
 30.099	0.859566
 30.103	0.859566
 30.107	0.859567
 30.111	0.859567
 30.115	0.859567
 30.119	0.859568
 30.123	0.859568
 30.127	0.859569
 30.131	0.859569
 30.135	0.859569
 30.139	0.85957
 30.143	0.85957
 30.147	0.85957
 30.151	0.859571
 30.155	0.859571
 30.159	0.859572
 30.163	0.859572
 30.167	0.859572
 30.171	0.859573
 30.175	0.859573
 30.179	0.859573
 30.183	0.859574
 30.187	0.859574
 30.191	0.859575
 30.195	0.859575
 30.199	0.859575
 30.203	0.859576
 30.207	0.859576
 30.211	0.859576
 30.215	0.859577
 30.219	0.859577
 30.223	0.859577
 30.227	0.859578
 30.231	0.859578
 30.235	0.859579
 30.239	0.859579
 30.243	0.859579
 30.247	0.85958
 30.251	0.85958
 30.255	0.85958
 30.259	0.859581
 30.263	0.859581
 30.267	0.859582
 30.271	0.859582
 30.275	0.859582
 30.279	0.859583
 30.283	0.859583
 30.287	0.859583
 30.291	0.859584
 30.295	0.859584
 30.299	0.859585
 30.303	0.859585
 30.307	0.859585
 30.311	0.859586
 30.315	0.859586
 30.319	0.859586
 30.323	0.859587
 30.327	0.859587
 30.331	0.859587
 30.335	0.859588
 30.339	0.859588
 30.343	0.859589
 30.347	0.859589
 30.351	0.859589
 30.355	0.85959
 30.359	0.85959
 30.363	0.85959
 30.367	0.859591
 30.371	0.859591
 30.375	0.859592
 30.379	0.859592
 30.383	0.859592
 30.387	0.859593
 30.391	0.859593
 30.395	0.859593
 30.399	0.859594
 30.403	0.859594
 30.407	0.859595
 30.411	0.859595
 30.415	0.859595
 30.419	0.859596
 30.423	0.859596
 30.427	0.859596
 30.431	0.859597
 30.435	0.859597
 30.439	0.859598
 30.443	0.859598
 30.447	0.859598
 30.451	0.859599
 30.455	0.859599
 30.459	0.859599
 30.463	0.8596
 30.467	0.8596
 30.471	0.8596
 30.475	0.859601
 30.479	0.859601
 30.483	0.859602
 30.487	0.859602
 30.491	0.859602
 30.495	0.859603
 30.499	0.859603
 30.5031	0.859603
 30.5071	0.859604
 30.5111	0.859604
 30.5151	0.859605
 30.5191	0.859605
 30.5231	0.859605
 30.5271	0.859606
 30.5311	0.859606
 30.5351	0.859606
 30.5391	0.859607
 30.5431	0.859607
 30.5471	0.859608
 30.5511	0.859608
 30.5551	0.859608
 30.5591	0.859609
 30.5631	0.859609
 30.5671	0.859609
 30.5711	0.85961
 30.5751	0.85961
 30.5791	0.859611
 30.5831	0.859611
 30.5871	0.859611
 30.5911	0.859612
 30.5951	0.859612
 30.5991	0.859612
 30.6031	0.859613
 30.6071	0.859613
 30.6111	0.859613
 30.6151	0.859614
 30.6191	0.859614
 30.6231	0.859615
 30.6271	0.859615
 30.6311	0.859615
 30.6351	0.859616
 30.6391	0.859616
 30.6431	0.859616
 30.6471	0.859617
 30.6511	0.859617
 30.6551	0.859618
 30.6591	0.859618
 30.6631	0.859618
 30.6671	0.859619
 30.6711	0.859619
 30.6751	0.859619
 30.6791	0.85962
 30.6831	0.85962
 30.6871	0.859621
 30.6911	0.859621
 30.6951	0.859621
 30.6991	0.859622
 30.7031	0.859622
 30.7071	0.859622
 30.7111	0.859623
 30.7151	0.859623
 30.7191	0.859623
 30.7231	0.859624
 30.7271	0.859624
 30.7311	0.859625
 30.7351	0.859625
 30.7391	0.859625
 30.7431	0.859626
 30.7471	0.859626
 30.7511	0.859626
 30.7551	0.859627
 30.7591	0.859627
 30.7631	0.859628
 30.7671	0.859628
 30.7711	0.859628
 30.7751	0.859629
 30.7791	0.859629
 30.7831	0.859629
 30.7871	0.85963
 30.7911	0.85963
 30.7951	0.859631
 30.7991	0.859631
 30.8031	0.859631
 30.8071	0.859632
 30.8111	0.859632
 30.8151	0.859632
 30.8191	0.859633
 30.8231	0.859633
 30.8271	0.859634
 30.8311	0.859634
 30.8351	0.859634
 30.8391	0.859635
 30.8431	0.859635
 30.8471	0.859635
 30.8511	0.859636
 30.8551	0.859636
 30.8591	0.859636
 30.8631	0.859637
 30.8671	0.859637
 30.8711	0.859638
 30.8751	0.859638
 30.8791	0.859638
 30.8831	0.859639
 30.8871	0.859639
 30.8911	0.859639
 30.8951	0.85964
 30.8991	0.85964
 30.9031	0.859641
 30.9071	0.859641
 30.9111	0.859641
 30.9151	0.859642
 30.9191	0.859642
 30.9231	0.859642
 30.9271	0.859643
 30.9311	0.859643
 30.9351	0.859644
 30.9391	0.859644
 30.9431	0.859644
 30.9471	0.859645
 30.9511	0.859645
 30.9551	0.859645
 30.9591	0.859646
 30.9631	0.859646
 30.9671	0.859646
 30.9711	0.859647
 30.9751	0.859647
 30.9791	0.859648
 30.9831	0.859648
 30.9871	0.859648
 30.9911	0.859649
 30.9951	0.859649
 30.9991	0.859649
 31.0031	0.85965
 31.0071	0.85965
 31.0111	0.859651
 31.0151	0.859651
 31.0191	0.859651
 31.0231	0.859652
 31.0271	0.859652
 31.0311	0.859652
 31.0351	0.859653
 31.0391	0.859653
 31.0431	0.859654
 31.0471	0.859654
 31.0511	0.859654
 31.0551	0.859655
 31.0591	0.859655
 31.0631	0.859655
 31.0671	0.859656
 31.0711	0.859656
 31.0751	0.859657
 31.0791	0.859657
 31.0831	0.859657
 31.0871	0.859658
 31.0911	0.859658
 31.0951	0.859658
 31.0991	0.859659
 31.1031	0.859659
 31.1071	0.859659
 31.1111	0.85966
 31.1151	0.85966
 31.1191	0.859661
 31.1231	0.859661
 31.1271	0.859661
 31.1311	0.859662
 31.1351	0.859662
 31.1391	0.859662
 31.1431	0.859663
 31.1471	0.859663
 31.1511	0.859664
 31.1551	0.859664
 31.1591	0.859664
 31.1631	0.859665
 31.1671	0.859665
 31.1711	0.859665
 31.1751	0.859666
 31.1791	0.859666
 31.1831	0.859667
 31.1871	0.859667
 31.1911	0.859667
 31.1951	0.859668
 31.1991	0.859668
 31.2031	0.859668
 31.2071	0.859669
 31.2111	0.859669
 31.2151	0.85967
 31.2191	0.85967
 31.2231	0.85967
 31.2271	0.859671
 31.2311	0.859671
 31.2351	0.859671
 31.2391	0.859672
 31.2431	0.859672
 31.2471	0.859672
 31.2511	0.859673
 31.2551	0.859673
 31.2591	0.859674
 31.2631	0.859674
 31.2671	0.859674
 31.2711	0.859675
 31.2751	0.859675
 31.2791	0.859675
 31.2831	0.859676
 31.2871	0.859676
 31.2911	0.859677
 31.2951	0.859677
 31.2991	0.859677
 31.3031	0.859678
 31.3071	0.859678
 31.3111	0.859678
 31.3151	0.859679
 31.3191	0.859679
 31.3231	0.85968
 31.3271	0.85968
 31.3311	0.85968
 31.3351	0.859681
 31.3391	0.859681
 31.3431	0.859681
 31.3471	0.859682
 31.3511	0.859682
 31.3551	0.859682
 31.3591	0.859683
 31.3631	0.859683
 31.3671	0.859684
 31.3711	0.859684
 31.3751	0.859684
 31.3791	0.859685
 31.3831	0.859685
 31.3871	0.859685
 31.3911	0.859686
 31.3951	0.859686
 31.3991	0.859687
 31.4031	0.859687
 31.4071	0.859687
 31.4111	0.859688
 31.4151	0.859688
 31.4191	0.859688
 31.4231	0.859689
 31.4271	0.859689
 31.4311	0.85969
 31.4351	0.85969
 31.4391	0.85969
 31.4431	0.859691
 31.4471	0.859691
 31.4511	0.859691
 31.4551	0.859692
 31.4591	0.859692
 31.4631	0.859693
 31.4671	0.859693
 31.4711	0.859693
 31.4751	0.859694
 31.4791	0.859694
 31.4831	0.859694
 31.4871	0.859695
 31.4911	0.859695
 31.4951	0.859695
 31.4991	0.859696
 31.5032	0.859696
 31.5072	0.859697
 31.5112	0.859697
 31.5152	0.859697
 31.5192	0.859698
 31.5232	0.859698
 31.5272	0.859698
 31.5312	0.859699
 31.5352	0.859699
 31.5392	0.8597
 31.5432	0.8597
 31.5472	0.8597
 31.5512	0.859701
 31.5552	0.859701
 31.5592	0.859701
 31.5632	0.859702
 31.5672	0.859702
 31.5712	0.859703
 31.5752	0.859703
 31.5792	0.859703
 31.5832	0.859704
 31.5872	0.859704
 31.5912	0.859704
 31.5952	0.859705
 31.5992	0.859705
 31.6032	0.859705
 31.6072	0.859706
 31.6112	0.859706
 31.6152	0.859707
 31.6192	0.859707
 31.6232	0.859707
 31.6272	0.859708
 31.6312	0.859708
 31.6352	0.859708
 31.6392	0.859709
 31.6432	0.859709
 31.6472	0.85971
 31.6512	0.85971
 31.6552	0.85971
 31.6592	0.859711
 31.6632	0.859711
 31.6672	0.859711
 31.6712	0.859712
 31.6752	0.859712
 31.6792	0.859713
 31.6832	0.859713
 31.6872	0.859713
 31.6912	0.859714
 31.6952	0.859714
 31.6992	0.859714
 31.7032	0.859715
 31.7072	0.859715
 31.7112	0.859716
 31.7152	0.859716
 31.7192	0.859716
 31.7232	0.859717
 31.7272	0.859717
 31.7312	0.859717
 31.7352	0.859718
 31.7392	0.859718
 31.7432	0.859718
 31.7472	0.859719
 31.7512	0.859719
 31.7552	0.85972
 31.7592	0.85972
 31.7632	0.85972
 31.7672	0.859721
 31.7712	0.859721
 31.7752	0.859721
 31.7792	0.859722
 31.7832	0.859722
 31.7872	0.859723
 31.7912	0.859723
 31.7952	0.859723
 31.7992	0.859724
 31.8032	0.859724
 31.8072	0.859724
 31.8112	0.859725
 31.8152	0.859725
 31.8192	0.859726
 31.8232	0.859726
 31.8272	0.859726
 31.8312	0.859727
 31.8352	0.859727
 31.8392	0.859727
 31.8432	0.859728
 31.8472	0.859728
 31.8512	0.859729
 31.8552	0.859729
 31.8592	0.859729
 31.8632	0.85973
 31.8672	0.85973
 31.8712	0.85973
 31.8752	0.859731
 31.8792	0.859731
 31.8832	0.859731
 31.8872	0.859732
 31.8912	0.859732
 31.8952	0.859733
 31.8992	0.859733
 31.9032	0.859733
 31.9072	0.859734
 31.9112	0.859734
 31.9152	0.859734
 31.9192	0.859735
 31.9232	0.859735
 31.9272	0.859736
 31.9312	0.859736
 31.9352	0.859736
 31.9392	0.859737
 31.9432	0.859737
 31.9472	0.859737
 31.9512	0.859738
 31.9552	0.859738
 31.9592	0.859739
 31.9632	0.859739
 31.9672	0.859739
 31.9712	0.85974
 31.9752	0.85974
 31.9792	0.85974
 31.9832	0.859741
 31.9872	0.859741
 31.9912	0.859741
 31.9952	0.859742
 31.9992	0.859742
 32.0032	0.859743
 32.0072	0.859743
 32.0112	0.859743
 32.0152	0.859744
 32.0192	0.859744
 32.0232	0.859744
 32.0272	0.859745
 32.0312	0.859745
 32.0352	0.859746
 32.0392	0.859746
 32.0432	0.859746
 32.0472	0.859747
 32.0512	0.859747
 32.0552	0.859747
 32.0592	0.859748
 32.0632	0.859748
 32.0672	0.859749
 32.0712	0.859749
 32.0752	0.859749
 32.0792	0.85975
 32.0832	0.85975
 32.0872	0.85975
 32.0912	0.859751
 32.0952	0.859751
 32.0992	0.859752
 32.1032	0.859752
 32.1072	0.859752
 32.1112	0.859753
 32.1152	0.859753
 32.1192	0.859753
 32.1232	0.859754
 32.1272	0.859754
 32.1312	0.859754
 32.1352	0.859755
 32.1392	0.859755
 32.1432	0.859756
 32.1472	0.859756
 32.1512	0.859756
 32.1552	0.859757
 32.1592	0.859757
 32.1632	0.859757
 32.1672	0.859758
 32.1712	0.859758
 32.1752	0.859759
 32.1792	0.859759
 32.1832	0.859759
 32.1872	0.85976
 32.1912	0.85976
 32.1952	0.85976
 32.1992	0.859761
 32.2032	0.859761
 32.2072	0.859762
 32.2112	0.859762
 32.2152	0.859762
 32.2192	0.859763
 32.2232	0.859763
 32.2272	0.859763
 32.2312	0.859764
 32.2352	0.859764
 32.2392	0.859764
 32.2432	0.859765
 32.2472	0.859765
 32.2512	0.859766
 32.2552	0.859766
 32.2592	0.859766
 32.2632	0.859767
 32.2672	0.859767
 32.2712	0.859767
 32.2752	0.859768
 32.2792	0.859768
 32.2832	0.859769
 32.2872	0.859769
 32.2912	0.859769
 32.2952	0.85977
 32.2992	0.85977
 32.3032	0.85977
 32.3072	0.859771
 32.3112	0.859771
 32.3152	0.859772
 32.3192	0.859772
 32.3232	0.859772
 32.3272	0.859773
 32.3312	0.859773
 32.3352	0.859773
 32.3392	0.859774
 32.3432	0.859774
 32.3472	0.859775
 32.3512	0.859775
 32.3552	0.859775
 32.3592	0.859776
 32.3632	0.859776
 32.3672	0.859776
 32.3712	0.859777
 32.3752	0.859777
 32.3792	0.859777
 32.3832	0.859778
 32.3872	0.859778
 32.3912	0.859779
 32.3952	0.859779
 32.3992	0.859779
 32.4032	0.85978
 32.4072	0.85978
 32.4112	0.85978
 32.4152	0.859781
 32.4192	0.859781
 32.4232	0.859782
 32.4272	0.859782
 32.4312	0.859782
 32.4352	0.859783
 32.4392	0.859783
 32.4432	0.859783
 32.4472	0.859784
 32.4512	0.859784
 32.4552	0.859785
 32.4592	0.859785
 32.4632	0.859785
 32.4672	0.859786
 32.4712	0.859786
 32.4752	0.859786
 32.4792	0.859787
 32.4832	0.859787
 32.4872	0.859788
 32.4912	0.859788
 32.4952	0.859788
 32.4992	0.859789
 32.5033	0.859789
 32.5073	0.859789
 32.5113	0.85979
 32.5153	0.85979
 32.5193	0.85979
 32.5233	0.859791
 32.5273	0.859791
 32.5313	0.859792
 32.5353	0.859792
 32.5393	0.859792
 32.5433	0.859793
 32.5473	0.859793
 32.5513	0.859793
 32.5553	0.859794
 32.5593	0.859794
 32.5633	0.859795
 32.5673	0.859795
 32.5713	0.859795
 32.5753	0.859796
 32.5793	0.859796
 32.5833	0.859796
 32.5873	0.859797
 32.5913	0.859797
 32.5953	0.859798
 32.5993	0.859798
 32.6033	0.859798
 32.6073	0.859799
 32.6113	0.859799
 32.6153	0.859799
 32.6193	0.8598
 32.6233	0.8598
 32.6273	0.8598
 32.6313	0.859801
 32.6353	0.859801
 32.6393	0.859802
 32.6433	0.859802
 32.6473	0.859802
 32.6513	0.859803
 32.6553	0.859803
 32.6593	0.859803
 32.6633	0.859804
 32.6673	0.859804
 32.6713	0.859805
 32.6753	0.859805
 32.6793	0.859805
 32.6833	0.859806
 32.6873	0.859806
 32.6913	0.859806
 32.6953	0.859807
 32.6993	0.859807
 32.7033	0.859808
 32.7073	0.859808
 32.7113	0.859808
 32.7153	0.859809
 32.7193	0.859809
 32.7233	0.859809
 32.7273	0.85981
 32.7313	0.85981
 32.7353	0.859811
 32.7393	0.859811
 32.7433	0.859811
 32.7473	0.859812
 32.7513	0.859812
 32.7553	0.859812
 32.7593	0.859813
 32.7633	0.859813
 32.7673	0.859813
 32.7713	0.859814
 32.7753	0.859814
 32.7793	0.859815
 32.7833	0.859815
 32.7873	0.859815
 32.7913	0.859816
 32.7953	0.859816
 32.7993	0.859816
 32.8033	0.859817
 32.8073	0.859817
 32.8113	0.859818
 32.8153	0.859818
 32.8193	0.859818
 32.8233	0.859819
 32.8273	0.859819
 32.8313	0.859819
 32.8353	0.85982
 32.8393	0.85982
 32.8433	0.859821
 32.8473	0.859821
 32.8513	0.859821
 32.8553	0.859822
 32.8593	0.859822
 32.8633	0.859822
 32.8673	0.859823
 32.8713	0.859823
 32.8753	0.859823
 32.8793	0.859824
 32.8833	0.859824
 32.8873	0.859825
 32.8913	0.859825
 32.8953	0.859825
 32.8993	0.859826
 32.9033	0.859826
 32.9073	0.859826
 32.9113	0.859827
 32.9153	0.859827
 32.9193	0.859828
 32.9233	0.859828
 32.9273	0.859828
 32.9313	0.859829
 32.9353	0.859829
 32.9393	0.859829
 32.9433	0.85983
 32.9473	0.85983
 32.9513	0.859831
 32.9553	0.859831
 32.9593	0.859831
 32.9633	0.859832
 32.9673	0.859832
 32.9713	0.859832
 32.9753	0.859833
 32.9793	0.859833
 32.9833	0.859834
 32.9873	0.859834
 32.9913	0.859834
 32.9953	0.859835
 32.9993	0.859835
 33.0033	0.859835
 33.0073	0.859836
 33.0113	0.859836
 33.0153	0.859836
 33.0193	0.859837
 33.0233	0.859837
 33.0273	0.859838
 33.0313	0.859838
 33.0353	0.859838
 33.0393	0.859839
 33.0433	0.859839
 33.0473	0.859839
 33.0513	0.85984
 33.0553	0.85984
 33.0593	0.859841
 33.0633	0.859841
 33.0673	0.859841
 33.0713	0.859842
 33.0753	0.859842
 33.0793	0.859842
 33.0833	0.859843
 33.0873	0.859843
 33.0913	0.859844
 33.0953	0.859844
 33.0993	0.859844
 33.1033	0.859845
 33.1073	0.859845
 33.1113	0.859845
 33.1153	0.859846
 33.1193	0.859846
 33.1233	0.859847
 33.1273	0.859847
 33.1313	0.859847
 33.1353	0.859848
 33.1393	0.859848
 33.1433	0.859848
 33.1473	0.859849
 33.1513	0.859849
 33.1553	0.859849
 33.1593	0.85985
 33.1633	0.85985
 33.1673	0.859851
 33.1713	0.859851
 33.1753	0.859851
 33.1793	0.859852
 33.1833	0.859852
 33.1873	0.859852
 33.1913	0.859853
 33.1953	0.859853
 33.1993	0.859854
 33.2033	0.859854
 33.2073	0.859854
 33.2113	0.859855
 33.2153	0.859855
 33.2193	0.859855
 33.2233	0.859856
 33.2273	0.859856
 33.2313	0.859857
 33.2353	0.859857
 33.2393	0.859857
 33.2433	0.859858
 33.2473	0.859858
 33.2513	0.859858
 33.2553	0.859859
 33.2593	0.859859
 33.2633	0.859859
 33.2673	0.85986
 33.2713	0.85986
 33.2753	0.859861
 33.2793	0.859861
 33.2833	0.859861
 33.2873	0.859862
 33.2913	0.859862
 33.2953	0.859862
 33.2993	0.859863
 33.3033	0.859863
 33.3073	0.859864
 33.3113	0.859864
 33.3153	0.859864
 33.3193	0.859865
 33.3233	0.859865
 33.3273	0.859865
 33.3313	0.859866
 33.3353	0.859866
 33.3393	0.859867
 33.3433	0.859867
 33.3473	0.859867
 33.3513	0.859868
 33.3553	0.859868
 33.3593	0.859868
 33.3633	0.859869
 33.3673	0.859869
 33.3713	0.85987
 33.3753	0.85987
 33.3793	0.85987
 33.3833	0.859871
 33.3873	0.859871
 33.3913	0.859871
 33.3953	0.859872
 33.3993	0.859872
 33.4033	0.859872
 33.4073	0.859873
 33.4113	0.859873
 33.4153	0.859874
 33.4193	0.859874
 33.4233	0.859874
 33.4273	0.859875
 33.4313	0.859875
 33.4353	0.859875
 33.4393	0.859876
 33.4433	0.859876
 33.4473	0.859877
 33.4513	0.859877
 33.4553	0.859877
 33.4593	0.859878
 33.4633	0.859878
 33.4673	0.859878
 33.4713	0.859879
 33.4753	0.859879
 33.4793	0.85988
 33.4833	0.85988
 33.4873	0.85988
 33.4913	0.859881
 33.4953	0.859881
 33.4993	0.859881
 33.5034	0.859882
 33.5074	0.859882
 33.5114	0.859882
 33.5154	0.859883
 33.5194	0.859883
 33.5234	0.859884
 33.5274	0.859884
 33.5314	0.859884
 33.5354	0.859885
 33.5394	0.859885
 33.5434	0.859885
 33.5474	0.859886
 33.5514	0.859886
 33.5554	0.859887
 33.5594	0.859887
 33.5634	0.859887
 33.5674	0.859888
 33.5714	0.859888
 33.5754	0.859888
 33.5794	0.859889
 33.5834	0.859889
 33.5874	0.85989
 33.5914	0.85989
 33.5954	0.85989
 33.5994	0.859891
 33.6034	0.859891
 33.6074	0.859891
 33.6114	0.859892
 33.6154	0.859892
 33.6194	0.859893
 33.6234	0.859893
 33.6274	0.859893
 33.6314	0.859894
 33.6354	0.859894
 33.6394	0.859894
 33.6434	0.859895
 33.6474	0.859895
 33.6514	0.859895
 33.6554	0.859896
 33.6594	0.859896
 33.6634	0.859897
 33.6674	0.859897
 33.6714	0.859897
 33.6754	0.859898
 33.6794	0.859898
 33.6834	0.859898
 33.6874	0.859899
 33.6914	0.859899
 33.6954	0.8599
 33.6994	0.8599
 33.7034	0.8599
 33.7074	0.859901
 33.7114	0.859901
 33.7154	0.859901
 33.7194	0.859902
 33.7234	0.859902
 33.7274	0.859903
 33.7314	0.859903
 33.7354	0.859903
 33.7394	0.859904
 33.7434	0.859904
 33.7474	0.859904
 33.7514	0.859905
 33.7554	0.859905
 33.7594	0.859906
 33.7634	0.859906
 33.7674	0.859906
 33.7714	0.859907
 33.7754	0.859907
 33.7794	0.859907
 33.7834	0.859908
 33.7874	0.859908
 33.7914	0.859908
 33.7954	0.859909
 33.7994	0.859909
 33.8034	0.85991
 33.8074	0.85991
 33.8114	0.85991
 33.8154	0.859911
 33.8194	0.859911
 33.8234	0.859911
 33.8274	0.859912
 33.8314	0.859912
 33.8354	0.859913
 33.8394	0.859913
 33.8434	0.859913
 33.8474	0.859914
 33.8514	0.859914
 33.8554	0.859914
 33.8594	0.859915
 33.8634	0.859915
 33.8674	0.859916
 33.8714	0.859916
 33.8754	0.859916
 33.8794	0.859917
 33.8834	0.859917
 33.8874	0.859917
 33.8914	0.859918
 33.8954	0.859918
 33.8994	0.859918
 33.9034	0.859919
 33.9074	0.859919
 33.9114	0.85992
 33.9154	0.85992
 33.9194	0.85992
 33.9234	0.859921
 33.9274	0.859921
 33.9314	0.859921
 33.9354	0.859922
 33.9394	0.859922
 33.9434	0.859923
 33.9474	0.859923
 33.9514	0.859923
 33.9554	0.859924
 33.9594	0.859924
 33.9634	0.859924
 33.9674	0.859925
 33.9714	0.859925
 33.9754	0.859926
 33.9794	0.859926
 33.9834	0.859926
 33.9874	0.859927
 33.9914	0.859927
 33.9954	0.859927
 33.9994	0.859928
 34.0034	0.859928
 34.0074	0.859929
 34.0114	0.859929
 34.0154	0.859929
 34.0194	0.85993
 34.0234	0.85993
 34.0274	0.85993
 34.0314	0.859931
 34.0354	0.859931
 34.0394	0.859931
 34.0434	0.859932
 34.0474	0.859932
 34.0514	0.859933
 34.0554	0.859933
 34.0594	0.859933
 34.0634	0.859934
 34.0674	0.859934
 34.0714	0.859934
 34.0754	0.859935
 34.0794	0.859935
 34.0834	0.859936
 34.0874	0.859936
 34.0914	0.859936
 34.0954	0.859937
 34.0994	0.859937
 34.1034	0.859937
 34.1074	0.859938
 34.1114	0.859938
 34.1154	0.859939
 34.1194	0.859939
 34.1234	0.859939
 34.1274	0.85994
 34.1314	0.85994
 34.1354	0.85994
 34.1394	0.859941
 34.1434	0.859941
 34.1474	0.859941
 34.1514	0.859942
 34.1554	0.859942
 34.1594	0.859943
 34.1634	0.859943
 34.1674	0.859943
 34.1714	0.859944
 34.1754	0.859944
 34.1794	0.859944
 34.1834	0.859945
 34.1874	0.859945
 34.1914	0.859946
 34.1954	0.859946
 34.1994	0.859946
 34.2034	0.859947
 34.2074	0.859947
 34.2114	0.859947
 34.2154	0.859948
 34.2194	0.859948
 34.2234	0.859949
 34.2274	0.859949
 34.2314	0.859949
 34.2354	0.85995
 34.2394	0.85995
 34.2434	0.85995
 34.2474	0.859951
 34.2514	0.859951
 34.2554	0.859952
 34.2594	0.859952
 34.2634	0.859952
 34.2674	0.859953
 34.2714	0.859953
 34.2754	0.859953
 34.2794	0.859954
 34.2834	0.859954
 34.2874	0.859954
 34.2914	0.859955
 34.2954	0.859955
 34.2994	0.859956
 34.3034	0.859956
 34.3074	0.859956
 34.3114	0.859957
 34.3154	0.859957
 34.3194	0.859957
 34.3234	0.859958
 34.3274	0.859958
 34.3314	0.859959
 34.3354	0.859959
 34.3394	0.859959
 34.3434	0.85996
 34.3474	0.85996
 34.3514	0.85996
 34.3554	0.859961
 34.3594	0.859961
 34.3634	0.859962
 34.3674	0.859962
 34.3714	0.859962
 34.3754	0.859963
 34.3794	0.859963
 34.3834	0.859963
 34.3874	0.859964
 34.3914	0.859964
 34.3954	0.859965
 34.3994	0.859965
 34.4034	0.859965
 34.4074	0.859966
 34.4114	0.859966
 34.4154	0.859966
 34.4194	0.859967
 34.4234	0.859967
 34.4274	0.859967
 34.4314	0.859968
 34.4354	0.859968
 34.4394	0.859969
 34.4434	0.859969
 34.4474	0.859969
 34.4514	0.85997
 34.4554	0.85997
 34.4594	0.85997
 34.4634	0.859971
 34.4674	0.859971
 34.4714	0.859972
 34.4754	0.859972
 34.4794	0.859972
 34.4834	0.859973
 34.4874	0.859973
 34.4914	0.859973
 34.4954	0.859974
 34.4994	0.859974
 34.5035	0.859975
 34.5075	0.859975
 34.5115	0.859975
 34.5155	0.859976
 34.5195	0.859976
 34.5235	0.859976
 34.5275	0.859977
 34.5315	0.859977
 34.5355	0.859977
 34.5395	0.859978
 34.5435	0.859978
 34.5475	0.859979
 34.5515	0.859979
 34.5555	0.859979
 34.5595	0.85998
 34.5635	0.85998
 34.5675	0.85998
 34.5715	0.859981
 34.5755	0.859981
 34.5795	0.859982
 34.5835	0.859982
 34.5875	0.859982
 34.5915	0.859983
 34.5955	0.859983
 34.5995	0.859983
 34.6035	0.859984
 34.6075	0.859984
 34.6115	0.859985
 34.6155	0.859985
 34.6195	0.859985
 34.6235	0.859986
 34.6275	0.859986
 34.6315	0.859986
 34.6355	0.859987
 34.6395	0.859987
 34.6435	0.859988
 34.6475	0.859988
 34.6515	0.859988
 34.6555	0.859989
 34.6595	0.859989
 34.6635	0.859989
 34.6675	0.85999
 34.6715	0.85999
 34.6755	0.85999
 34.6795	0.859991
 34.6835	0.859991
 34.6875	0.859992
 34.6915	0.859992
 34.6955	0.859992
 34.6995	0.859993
 34.7035	0.859993
 34.7075	0.859993
 34.7115	0.859994
 34.7155	0.859994
 34.7195	0.859995
 34.7235	0.859995
 34.7275	0.859995
 34.7315	0.859996
 34.7355	0.859996
 34.7395	0.859996
 34.7435	0.859997
 34.7475	0.859997
 34.7515	0.859998
 34.7555	0.859998
 34.7595	0.859998
 34.7635	0.859999
 34.7675	0.859999
 34.7715	0.859999
 34.7755	0.86
 34.7795	0.86
 34.7835	0.86
 34.7875	0.860001
 34.7915	0.860001
 34.7955	0.860002
 34.7995	0.860002
 34.8035	0.860002
 34.8075	0.860003
 34.8115	0.860003
 34.8155	0.860003
 34.8195	0.860004
 34.8235	0.860004
 34.8275	0.860005
 34.8315	0.860005
 34.8355	0.860005
 34.8395	0.860006
 34.8435	0.860006
 34.8475	0.860006
 34.8515	0.860007
 34.8555	0.860007
 34.8595	0.860008
 34.8635	0.860008
 34.8675	0.860008
 34.8715	0.860009
 34.8755	0.860009
 34.8795	0.860009
 34.8835	0.86001
 34.8875	0.86001
 34.8915	0.860011
 34.8955	0.860011
 34.8995	0.860011
 34.9035	0.860012
 34.9075	0.860012
 34.9115	0.860012
 34.9155	0.860013
 34.9195	0.860013
 34.9235	0.860013
 34.9275	0.860014
 34.9315	0.860014
 34.9355	0.860015
 34.9395	0.860015
 34.9435	0.860015
 34.9475	0.860016
 34.9515	0.860016
 34.9555	0.860016
 34.9595	0.860017
 34.9635	0.860017
 34.9675	0.860018
 34.9715	0.860018
 34.9755	0.860018
 34.9795	0.860019
 34.9835	0.860019
 34.9875	0.860019
 34.9915	0.86002
 34.9955	0.86002
 34.9995	0.860021
 35.0035	0.860021
 35.0075	0.860021
 35.0115	0.860022
 35.0155	0.860022
 35.0195	0.860022
 35.0235	0.860023
 35.0275	0.860023
 35.0315	0.860023
 35.0355	0.860024
 35.0395	0.860024
 35.0435	0.860024
 35.0475	0.860025
 35.0515	0.860025
 35.0555	0.860026
 35.0595	0.860026
 35.0635	0.860026
 35.0675	0.860027
 35.0715	0.860027
 35.0755	0.860027
 35.0795	0.860028
 35.0835	0.860028
 35.0875	0.860028
 35.0915	0.860029
 35.0955	0.860029
 35.0995	0.860029
 35.1035	0.86003
 35.1075	0.86003
 35.1115	0.86003
 35.1155	0.860031
 35.1195	0.860031
 35.1235	0.860032
 35.1275	0.860032
 35.1315	0.860032
 35.1355	0.860033
 35.1395	0.860033
 35.1435	0.860033
 35.1475	0.860034
 35.1515	0.860034
 35.1555	0.860034
 35.1595	0.860035
 35.1635	0.860035
 35.1675	0.860035
 35.1715	0.860036
 35.1755	0.860036
 35.1795	0.860037
 35.1835	0.860037
 35.1875	0.860037
 35.1915	0.860038
 35.1955	0.860038
 35.1995	0.860038
 35.2035	0.860039
 35.2075	0.860039
 35.2115	0.860039
 35.2155	0.86004
 35.2195	0.86004
 35.2235	0.86004
 35.2275	0.860041
 35.2315	0.860041
 35.2355	0.860041
 35.2395	0.860042
 35.2435	0.860042
 35.2475	0.860043
 35.2515	0.860043
 35.2555	0.860043
 35.2595	0.860044
 35.2635	0.860044
 35.2675	0.860044
 35.2715	0.860045
 35.2755	0.860045
 35.2795	0.860045
 35.2835	0.860046
 35.2875	0.860046
 35.2915	0.860046
 35.2955	0.860047
 35.2995	0.860047
 35.3035	0.860048
 35.3075	0.860048
 35.3115	0.860048
 35.3155	0.860049
 35.3195	0.860049
 35.3235	0.860049
 35.3275	0.86005
 35.3315	0.86005
 35.3355	0.86005
 35.3395	0.860051
 35.3435	0.860051
 35.3475	0.860051
 35.3515	0.860052
 35.3555	0.860052
 35.3595	0.860052
 35.3635	0.860053
 35.3675	0.860053
 35.3715	0.860054
 35.3755	0.860054
 35.3795	0.860054
 35.3835	0.860055
 35.3875	0.860055
 35.3915	0.860055
 35.3955	0.860056
 35.3995	0.860056
 35.4035	0.860056
 35.4075	0.860057
 35.4115	0.860057
 35.4155	0.860057
 35.4195	0.860058
 35.4235	0.860058
 35.4275	0.860059
 35.4315	0.860059
 35.4355	0.860059
 35.4395	0.86006
 35.4435	0.86006
 35.4475	0.86006
 35.4515	0.860061
 35.4555	0.860061
 35.4595	0.860061
 35.4635	0.860062
 35.4675	0.860062
 35.4715	0.860062
 35.4755	0.860063
 35.4795	0.860063
 35.4835	0.860063
 35.4875	0.860064
 35.4915	0.860064
 35.4955	0.860065
 35.4995	0.860065
 35.5036	0.860065
 35.5076	0.860066
 35.5116	0.860066
 35.5156	0.860066
 35.5196	0.860067
 35.5236	0.860067
 35.5276	0.860067
 35.5316	0.860068
 35.5356	0.860068
 35.5396	0.860068
 35.5436	0.860069
 35.5476	0.860069
 35.5516	0.86007
 35.5556	0.86007
 35.5596	0.86007
 35.5636	0.860071
 35.5676	0.860071
 35.5716	0.860071
 35.5756	0.860072
 35.5796	0.860072
 35.5836	0.860072
 35.5876	0.860073
 35.5916	0.860073
 35.5956	0.860073
 35.5996	0.860074
 35.6036	0.860074
 35.6076	0.860074
 35.6116	0.860075
 35.6156	0.860075
 35.6196	0.860076
 35.6236	0.860076
 35.6276	0.860076
 35.6316	0.860077
 35.6356	0.860077
 35.6396	0.860077
 35.6436	0.860078
 35.6476	0.860078
 35.6516	0.860078
 35.6556	0.860079
 35.6596	0.860079
 35.6636	0.860079
 35.6676	0.86008
 35.6716	0.86008
 35.6756	0.860081
 35.6796	0.860081
 35.6836	0.860081
 35.6876	0.860082
 35.6916	0.860082
 35.6956	0.860082
 35.6996	0.860083
 35.7036	0.860083
 35.7076	0.860083
 35.7116	0.860084
 35.7156	0.860084
 35.7196	0.860084
 35.7236	0.860085
 35.7276	0.860085
 35.7316	0.860085
 35.7356	0.860086
 35.7396	0.860086
 35.7436	0.860087
 35.7476	0.860087
 35.7516	0.860087
 35.7556	0.860088
 35.7596	0.860088
 35.7636	0.860088
 35.7676	0.860089
 35.7716	0.860089
 35.7756	0.860089
 35.7796	0.86009
 35.7836	0.86009
 35.7876	0.86009
 35.7916	0.860091
 35.7956	0.860091
 35.7996	0.860092
 35.8036	0.860092
 35.8076	0.860092
 35.8116	0.860093
 35.8156	0.860093
 35.8196	0.860093
 35.8236	0.860094
 35.8276	0.860094
 35.8316	0.860094
 35.8356	0.860095
 35.8396	0.860095
 35.8436	0.860095
 35.8476	0.860096
 35.8516	0.860096
 35.8556	0.860096
 35.8596	0.860097
 35.8636	0.860097
 35.8676	0.860098
 35.8716	0.860098
 35.8756	0.860098
 35.8796	0.860099
 35.8836	0.860099
 35.8876	0.860099
 35.8916	0.8601
 35.8956	0.8601
 35.8996	0.8601
 35.9036	0.860101
 35.9076	0.860101
 35.9116	0.860101
 35.9156	0.860102
 35.9196	0.860102
 35.9236	0.860103
 35.9276	0.860103
 35.9316	0.860103
 35.9356	0.860104
 35.9396	0.860104
 35.9436	0.860104
 35.9476	0.860105
 35.9516	0.860105
 35.9556	0.860105
 35.9596	0.860106
 35.9636	0.860106
 35.9676	0.860106
 35.9716	0.860107
 35.9756	0.860107
 35.9796	0.860107
 35.9836	0.860108
 35.9876	0.860108
 35.9916	0.860109
 35.9956	0.860109
 35.9996	0.860109
 36.0036	0.86011
 36.0076	0.86011
 36.0116	0.86011
 36.0156	0.860111
 36.0196	0.860111
 36.0236	0.860111
 36.0276	0.860112
 36.0316	0.860112
 36.0356	0.860112
 36.0396	0.860113
 36.0436	0.860113
 36.0476	0.860114
 36.0516	0.860114
 36.0556	0.860114
 36.0596	0.860115
 36.0636	0.860115
 36.0676	0.860115
 36.0716	0.860116
 36.0756	0.860116
 36.0796	0.860116
 36.0836	0.860117
 36.0876	0.860117
 36.0916	0.860117
 36.0956	0.860118
 36.0996	0.860118
 36.1036	0.860118
 36.1076	0.860119
 36.1116	0.860119
 36.1156	0.86012
 36.1196	0.86012
 36.1236	0.86012
 36.1276	0.860121
 36.1316	0.860121
 36.1356	0.860121
 36.1396	0.860122
 36.1436	0.860122
 36.1476	0.860122
 36.1516	0.860123
 36.1556	0.860123
 36.1596	0.860123
 36.1636	0.860124
 36.1676	0.860124
 36.1716	0.860125
 36.1756	0.860125
 36.1796	0.860125
 36.1836	0.860126
 36.1876	0.860126
 36.1916	0.860126
 36.1956	0.860127
 36.1996	0.860127
 36.2036	0.860127
 36.2076	0.860128
 36.2116	0.860128
 36.2156	0.860128
 36.2196	0.860129
 36.2236	0.860129
 36.2276	0.860129
 36.2316	0.86013
 36.2356	0.86013
 36.2396	0.860131
 36.2436	0.860131
 36.2476	0.860131
 36.2516	0.860132
 36.2556	0.860132
 36.2596	0.860132
 36.2636	0.860133
 36.2676	0.860133
 36.2716	0.860133
 36.2756	0.860134
 36.2796	0.860134
 36.2836	0.860134
 36.2876	0.860135
 36.2916	0.860135
 36.2956	0.860136
 36.2996	0.860136
 36.3036	0.860136
 36.3076	0.860137
 36.3116	0.860137
 36.3156	0.860137
 36.3196	0.860138
 36.3236	0.860138
 36.3276	0.860138
 36.3316	0.860139
 36.3356	0.860139
 36.3396	0.860139
 36.3436	0.86014
 36.3476	0.86014
 36.3516	0.86014
 36.3556	0.860141
 36.3596	0.860141
 36.3636	0.860142
 36.3676	0.860142
 36.3716	0.860142
 36.3756	0.860143
 36.3796	0.860143
 36.3836	0.860143
 36.3876	0.860144
 36.3916	0.860144
 36.3956	0.860144
 36.3996	0.860145
 36.4036	0.860145
 36.4076	0.860145
 36.4116	0.860146
 36.4156	0.860146
 36.4196	0.860147
 36.4236	0.860147
 36.4276	0.860147
 36.4316	0.860148
 36.4356	0.860148
 36.4396	0.860148
 36.4436	0.860149
 36.4476	0.860149
 36.4516	0.860149
 36.4556	0.86015
 36.4596	0.86015
 36.4636	0.86015
 36.4676	0.860151
 36.4716	0.860151
 36.4756	0.860151
 36.4796	0.860152
 36.4836	0.860152
 36.4876	0.860153
 36.4916	0.860153
 36.4956	0.860153
 36.4996	0.860154
 36.5037	0.860154
 36.5077	0.860154
 36.5117	0.860155
 36.5157	0.860155
 36.5197	0.860155
 36.5237	0.860156
 36.5277	0.860156
 36.5317	0.860156
 36.5357	0.860157
 36.5397	0.860157
 36.5437	0.860158
 36.5477	0.860158
 36.5517	0.860158
 36.5557	0.860159
 36.5597	0.860159
 36.5637	0.860159
 36.5677	0.86016
 36.5717	0.86016
 36.5757	0.86016
 36.5797	0.860161
 36.5837	0.860161
 36.5877	0.860161
 36.5917	0.860162
 36.5957	0.860162
 36.5997	0.860162
 36.6037	0.860163
 36.6077	0.860163
 36.6117	0.860164
 36.6157	0.860164
 36.6197	0.860164
 36.6237	0.860165
 36.6277	0.860165
 36.6317	0.860165
 36.6357	0.860166
 36.6397	0.860166
 36.6437	0.860166
 36.6477	0.860167
 36.6517	0.860167
 36.6557	0.860167
 36.6597	0.860168
 36.6637	0.860168
 36.6677	0.860169
 36.6717	0.860169
 36.6757	0.860169
 36.6797	0.86017
 36.6837	0.86017
 36.6877	0.86017
 36.6917	0.860171
 36.6957	0.860171
 36.6997	0.860171
 36.7037	0.860172
 36.7077	0.860172
 36.7117	0.860172
 36.7157	0.860173
 36.7197	0.860173
 36.7237	0.860173
 36.7277	0.860174
 36.7317	0.860174
 36.7357	0.860175
 36.7397	0.860175
 36.7437	0.860175
 36.7477	0.860176
 36.7517	0.860176
 36.7557	0.860176
 36.7597	0.860177
 36.7637	0.860177
 36.7677	0.860177
 36.7717	0.860178
 36.7757	0.860178
 36.7797	0.860178
 36.7837	0.860179
 36.7877	0.860179
 36.7917	0.86018
 36.7957	0.86018
 36.7997	0.86018
 36.8037	0.860181
 36.8077	0.860181
 36.8117	0.860181
 36.8157	0.860182
 36.8197	0.860182
 36.8237	0.860182
 36.8277	0.860183
 36.8317	0.860183
 36.8357	0.860183
 36.8397	0.860184
 36.8437	0.860184
 36.8477	0.860184
 36.8517	0.860185
 36.8557	0.860185
 36.8597	0.860186
 36.8637	0.860186
 36.8677	0.860186
 36.8717	0.860187
 36.8757	0.860187
 36.8797	0.860187
 36.8837	0.860188
 36.8877	0.860188
 36.8917	0.860188
 36.8957	0.860189
 36.8997	0.860189
 36.9037	0.860189
 36.9077	0.86019
 36.9117	0.86019
 36.9157	0.860191
 36.9197	0.860191
 36.9237	0.860191
 36.9277	0.860192
 36.9317	0.860192
 36.9357	0.860192
 36.9397	0.860193
 36.9437	0.860193
 36.9477	0.860193
 36.9517	0.860194
 36.9557	0.860194
 36.9597	0.860194
 36.9637	0.860195
 36.9677	0.860195
 36.9717	0.860196
 36.9757	0.860196
 36.9797	0.860196
 36.9837	0.860197
 36.9877	0.860197
 36.9917	0.860197
 36.9957	0.860198
 36.9997	0.860198
 37.0037	0.860198
 37.0077	0.860199
 37.0117	0.860199
 37.0157	0.860199
 37.0197	0.8602
 37.0237	0.8602
 37.0277	0.8602
 37.0317	0.860201
 37.0357	0.860201
 37.0397	0.860202
 37.0437	0.860202
 37.0477	0.860202
 37.0517	0.860203
 37.0557	0.860203
 37.0597	0.860203
 37.0637	0.860204
 37.0677	0.860204
 37.0717	0.860204
 37.0757	0.860205
 37.0797	0.860205
 37.0837	0.860205
 37.0877	0.860206
 37.0917	0.860206
 37.0957	0.860207
 37.0997	0.860207
 37.1037	0.860207
 37.1077	0.860208
 37.1117	0.860208
 37.1157	0.860208
 37.1197	0.860209
 37.1237	0.860209
 37.1277	0.860209
 37.1317	0.86021
 37.1357	0.86021
 37.1397	0.86021
 37.1437	0.860211
 37.1477	0.860211
 37.1517	0.860211
 37.1557	0.860212
 37.1597	0.860212
 37.1637	0.860213
 37.1677	0.860213
 37.1717	0.860213
 37.1757	0.860214
 37.1797	0.860214
 37.1837	0.860214
 37.1877	0.860215
 37.1917	0.860215
 37.1957	0.860215
 37.1997	0.860216
 37.2037	0.860216
 37.2077	0.860216
 37.2117	0.860217
 37.2157	0.860217
 37.2197	0.860218
 37.2237	0.860218
 37.2277	0.860218
 37.2317	0.860219
 37.2357	0.860219
 37.2397	0.860219
 37.2437	0.86022
 37.2477	0.86022
 37.2517	0.86022
 37.2557	0.860221
 37.2597	0.860221
 37.2637	0.860221
 37.2677	0.860222
 37.2717	0.860222
 37.2757	0.860222
 37.2797	0.860223
 37.2837	0.860223
 37.2877	0.860224
 37.2917	0.860224
 37.2957	0.860224
 37.2997	0.860225
 37.3037	0.860225
 37.3077	0.860225
 37.3117	0.860226
 37.3157	0.860226
 37.3197	0.860226
 37.3237	0.860227
 37.3277	0.860227
 37.3317	0.860227
 37.3357	0.860228
 37.3397	0.860228
 37.3437	0.860229
 37.3477	0.860229
 37.3517	0.860229
 37.3557	0.86023
 37.3597	0.86023
 37.3637	0.86023
 37.3677	0.860231
 37.3717	0.860231
 37.3757	0.860231
 37.3797	0.860232
 37.3837	0.860232
 37.3877	0.860232
 37.3917	0.860233
 37.3957	0.860233
 37.3997	0.860233
 37.4037	0.860234
 37.4077	0.860234
 37.4117	0.860235
 37.4157	0.860235
 37.4197	0.860235
 37.4237	0.860236
 37.4277	0.860236
 37.4317	0.860236
 37.4357	0.860237
 37.4397	0.860237
 37.4437	0.860237
 37.4477	0.860238
 37.4517	0.860238
 37.4557	0.860238
 37.4597	0.860239
 37.4637	0.860239
 37.4677	0.86024
 37.4717	0.86024
 37.4757	0.86024
 37.4797	0.860241
 37.4837	0.860241
 37.4877	0.860241
 37.4917	0.860242
 37.4957	0.860242
 37.4997	0.860242
 37.5038	0.860243
 37.5078	0.860243
 37.5118	0.860243
 37.5158	0.860244
 37.5198	0.860244
 37.5238	0.860244
 37.5278	0.860245
 37.5318	0.860245
 37.5358	0.860246
 37.5398	0.860246
 37.5438	0.860246
 37.5478	0.860247
 37.5518	0.860247
 37.5558	0.860247
 37.5598	0.860248
 37.5638	0.860248
 37.5678	0.860248
 37.5718	0.860249
 37.5758	0.860249
 37.5798	0.860249
 37.5838	0.86025
 37.5878	0.86025
 37.5918	0.860251
 37.5958	0.860251
 37.5998	0.860251
 37.6038	0.860252
 37.6078	0.860252
 37.6118	0.860252
 37.6158	0.860253
 37.6198	0.860253
 37.6238	0.860253
 37.6278	0.860254
 37.6318	0.860254
 37.6358	0.860254
 37.6398	0.860255
 37.6438	0.860255
 37.6478	0.860255
 37.6518	0.860256
 37.6558	0.860256
 37.6598	0.860257
 37.6638	0.860257
 37.6678	0.860257
 37.6718	0.860258
 37.6758	0.860258
 37.6798	0.860258
 37.6838	0.860259
 37.6878	0.860259
 37.6918	0.860259
 37.6958	0.86026
 37.6998	0.86026
 37.7038	0.86026
 37.7078	0.860261
 37.7118	0.860261
 37.7158	0.860262
 37.7198	0.860262
 37.7238	0.860262
 37.7278	0.860263
 37.7318	0.860263
 37.7358	0.860263
 37.7398	0.860264
 37.7438	0.860264
 37.7478	0.860264
 37.7518	0.860265
 37.7558	0.860265
 37.7598	0.860265
 37.7638	0.860266
 37.7678	0.860266
 37.7718	0.860266
 37.7758	0.860267
 37.7798	0.860267
 37.7838	0.860268
 37.7878	0.860268
 37.7918	0.860268
 37.7958	0.860269
 37.7998	0.860269
 37.8038	0.860269
 37.8078	0.86027
 37.8118	0.86027
 37.8158	0.86027
 37.8198	0.860271
 37.8238	0.860271
 37.8278	0.860271
 37.8318	0.860272
 37.8358	0.860272
 37.8398	0.860273
 37.8438	0.860273
 37.8478	0.860273
 37.8518	0.860274
 37.8558	0.860274
 37.8598	0.860274
 37.8638	0.860275
 37.8678	0.860275
 37.8718	0.860275
 37.8758	0.860276
 37.8798	0.860276
 37.8838	0.860276
 37.8878	0.860277
 37.8918	0.860277
 37.8958	0.860277
 37.8998	0.860278
 37.9038	0.860278
 37.9078	0.860279
 37.9118	0.860279
 37.9158	0.860279
 37.9198	0.86028
 37.9238	0.86028
 37.9278	0.86028
 37.9318	0.860281
 37.9358	0.860281
 37.9398	0.860281
 37.9438	0.860282
 37.9478	0.860282
 37.9518	0.860282
 37.9558	0.860283
 37.9598	0.860283
 37.9638	0.860284
 37.9678	0.860284
 37.9718	0.860284
 37.9758	0.860285
 37.9798	0.860285
 37.9838	0.860285
 37.9878	0.860286
 37.9918	0.860286
 37.9958	0.860286
 37.9998	0.860287
 38.0038	0.860287
 38.0078	0.860287
 38.0118	0.860288
 38.0158	0.860288
 38.0198	0.860288
 38.0238	0.860289
 38.0278	0.860289
 38.0318	0.86029
 38.0358	0.86029
 38.0398	0.86029
 38.0438	0.860291
 38.0478	0.860291
 38.0518	0.860291
 38.0558	0.860292
 38.0598	0.860292
 38.0638	0.860292
 38.0678	0.860293
 38.0718	0.860293
 38.0758	0.860293
 38.0798	0.860294
 38.0838	0.860294
 38.0878	0.860295
 38.0918	0.860295
 38.0958	0.860295
 38.0998	0.860296
 38.1038	0.860296
 38.1078	0.860296
 38.1118	0.860297
 38.1158	0.860297
 38.1198	0.860297
 38.1238	0.860298
 38.1278	0.860298
 38.1318	0.860298
 38.1358	0.860299
 38.1398	0.860299
 38.1438	0.860299
 38.1478	0.8603
 38.1518	0.8603
 38.1558	0.860301
 38.1598	0.860301
 38.1638	0.860301
 38.1678	0.860302
 38.1718	0.860302
 38.1758	0.860302
 38.1798	0.860303
 38.1838	0.860303
 38.1878	0.860303
 38.1918	0.860304
 38.1958	0.860304
 38.1998	0.860304
 38.2038	0.860305
 38.2078	0.860305
 38.2118	0.860306
 38.2158	0.860306
 38.2198	0.860306
 38.2238	0.860307
 38.2278	0.860307
 38.2318	0.860307
 38.2358	0.860308
 38.2398	0.860308
 38.2438	0.860308
 38.2478	0.860309
 38.2518	0.860309
 38.2558	0.860309
 38.2598	0.86031
 38.2638	0.86031
 38.2678	0.86031
 38.2718	0.860311
 38.2758	0.860311
 38.2798	0.860312
 38.2838	0.860312
 38.2878	0.860312
 38.2918	0.860313
 38.2958	0.860313
 38.2998	0.860313
 38.3038	0.860314
 38.3078	0.860314
 38.3118	0.860314
 38.3158	0.860315
 38.3198	0.860315
 38.3238	0.860315
 38.3278	0.860316
 38.3318	0.860316
 38.3358	0.860317
 38.3398	0.860317
 38.3438	0.860317
 38.3478	0.860318
 38.3518	0.860318
 38.3558	0.860318
 38.3598	0.860319
 38.3638	0.860319
 38.3678	0.860319
 38.3718	0.86032
 38.3758	0.86032
 38.3798	0.86032
 38.3838	0.860321
 38.3878	0.860321
 38.3918	0.860321
 38.3958	0.860322
 38.3998	0.860322
 38.4038	0.860323
 38.4078	0.860323
 38.4118	0.860323
 38.4158	0.860324
 38.4198	0.860324
 38.4238	0.860324
 38.4278	0.860325
 38.4318	0.860325
 38.4358	0.860325
 38.4398	0.860326
 38.4438	0.860326
 38.4478	0.860326
 38.4518	0.860327
 38.4558	0.860327
 38.4598	0.860328
 38.4638	0.860328
 38.4678	0.860328
 38.4718	0.860329
 38.4758	0.860329
 38.4798	0.860329
 38.4838	0.86033
 38.4878	0.86033
 38.4918	0.86033
 38.4958	0.860331
 38.4998	0.860331
 38.5039	0.860331
 38.5079	0.860332
 38.5119	0.860332
 38.5159	0.860332
 38.5199	0.860333
 38.5239	0.860333
 38.5279	0.860334
 38.5319	0.860334
 38.5359	0.860334
 38.5399	0.860335
 38.5439	0.860335
 38.5479	0.860335
 38.5519	0.860336
 38.5559	0.860336
 38.5599	0.860336
 38.5639	0.860337
 38.5679	0.860337
 38.5719	0.860337
 38.5759	0.860338
 38.5799	0.860338
 38.5839	0.860339
 38.5879	0.860339
 38.5919	0.860339
 38.5959	0.86034
 38.5999	0.86034
 38.6039	0.86034
 38.6079	0.860341
 38.6119	0.860341
 38.6159	0.860341
 38.6199	0.860342
 38.6239	0.860342
 38.6279	0.860342
 38.6319	0.860343
 38.6359	0.860343
 38.6399	0.860343
 38.6439	0.860344
 38.6479	0.860344
 38.6519	0.860345
 38.6559	0.860345
 38.6599	0.860345
 38.6639	0.860346
 38.6679	0.860346
 38.6719	0.860346
 38.6759	0.860347
 38.6799	0.860347
 38.6839	0.860347
 38.6879	0.860348
 38.6919	0.860348
 38.6959	0.860348
 38.6999	0.860349
 38.7039	0.860349
 38.7079	0.86035
 38.7119	0.86035
 38.7159	0.86035
 38.7199	0.860351
 38.7239	0.860351
 38.7279	0.860351
 38.7319	0.860352
 38.7359	0.860352
 38.7399	0.860352
 38.7439	0.860353
 38.7479	0.860353
 38.7519	0.860353
 38.7559	0.860354
 38.7599	0.860354
 38.7639	0.860354
 38.7679	0.860355
 38.7719	0.860355
 38.7759	0.860356
 38.7799	0.860356
 38.7839	0.860356
 38.7879	0.860357
 38.7919	0.860357
 38.7959	0.860357
 38.7999	0.860358
 38.8039	0.860358
 38.8079	0.860358
 38.8119	0.860359
 38.8159	0.860359
 38.8199	0.860359
 38.8239	0.86036
 38.8279	0.86036
 38.8319	0.860361
 38.8359	0.860361
 38.8399	0.860361
 38.8439	0.860362
 38.8479	0.860362
 38.8519	0.860362
 38.8559	0.860363
 38.8599	0.860363
 38.8639	0.860363
 38.8679	0.860364
 38.8719	0.860364
 38.8759	0.860364
 38.8799	0.860365
 38.8839	0.860365
 38.8879	0.860365
 38.8919	0.860366
 38.8959	0.860366
 38.8999	0.860367
 38.9039	0.860367
 38.9079	0.860367
 38.9119	0.860368
 38.9159	0.860368
 38.9199	0.860368
 38.9239	0.860369
 38.9279	0.860369
 38.9319	0.860369
 38.9359	0.86037
 38.9399	0.86037
 38.9439	0.86037
 38.9479	0.860371
 38.9519	0.860371
 38.9559	0.860372
 38.9599	0.860372
 38.9639	0.860372
 38.9679	0.860373
 38.9719	0.860373
 38.9759	0.860373
 38.9799	0.860374
 38.9839	0.860374
 38.9879	0.860374
 38.9919	0.860375
 38.9959	0.860375
 38.9999	0.860375
 39.0039	0.860376
 39.0079	0.860376
 39.0119	0.860376
 39.0159	0.860377
 39.0199	0.860377
 39.0239	0.860378
 39.0279	0.860378
 39.0319	0.860378
 39.0359	0.860379
 39.0399	0.860379
 39.0439	0.860379
 39.0479	0.86038
 39.0519	0.86038
 39.0559	0.86038
 39.0599	0.860381
 39.0639	0.860381
 39.0679	0.860381
 39.0719	0.860382
 39.0759	0.860382
 39.0799	0.860383
 39.0839	0.860383
 39.0879	0.860383
 39.0919	0.860384
 39.0959	0.860384
 39.0999	0.860384
 39.1039	0.860385
 39.1079	0.860385
 39.1119	0.860385
 39.1159	0.860386
 39.1199	0.860386
 39.1239	0.860386
 39.1279	0.860387
 39.1319	0.860387
 39.1359	0.860388
 39.1399	0.860388
 39.1439	0.860388
 39.1479	0.860389
 39.1519	0.860389
 39.1559	0.860389
 39.1599	0.86039
 39.1639	0.86039
 39.1679	0.86039
 39.1719	0.860391
 39.1759	0.860391
 39.1799	0.860391
 39.1839	0.860392
 39.1879	0.860392
 39.1919	0.860392
 39.1959	0.860393
 39.1999	0.860393
 39.2039	0.860394
 39.2079	0.860394
 39.2119	0.860394
 39.2159	0.860395
 39.2199	0.860395
 39.2239	0.860395
 39.2279	0.860396
 39.2319	0.860396
 39.2359	0.860396
 39.2399	0.860397
 39.2439	0.860397
 39.2479	0.860397
 39.2519	0.860398
 39.2559	0.860398
 39.2599	0.860399
 39.2639	0.860399
 39.2679	0.860399
 39.2719	0.8604
 39.2759	0.8604
 39.2799	0.8604
 39.2839	0.860401
 39.2879	0.860401
 39.2919	0.860401
 39.2959	0.860402
 39.2999	0.860402
 39.3039	0.860402
 39.3079	0.860403
 39.3119	0.860403
 39.3159	0.860403
 39.3199	0.860404
 39.3239	0.860404
 39.3279	0.860405
 39.3319	0.860405
 39.3359	0.860405
 39.3399	0.860406
 39.3439	0.860406
 39.3479	0.860406
 39.3519	0.860407
 39.3559	0.860407
 39.3599	0.860407
 39.3639	0.860408
 39.3679	0.860408
 39.3719	0.860408
 39.3759	0.860409
 39.3799	0.860409
 39.3839	0.86041
 39.3879	0.86041
 39.3919	0.86041
 39.3959	0.860411
 39.3999	0.860411
 39.4039	0.860411
 39.4079	0.860412
 39.4119	0.860412
 39.4159	0.860412
 39.4199	0.860413
 39.4239	0.860413
 39.4279	0.860413
 39.4319	0.860414
 39.4359	0.860414
 39.4399	0.860414
 39.4439	0.860415
 39.4479	0.860415
 39.4519	0.860416
 39.4559	0.860416
 39.4599	0.860416
 39.4639	0.860417
 39.4679	0.860417
 39.4719	0.860417
 39.4759	0.860418
 39.4799	0.860418
 39.4839	0.860418
 39.4879	0.860419
 39.4919	0.860419
 39.4959	0.860419
 39.4999	0.86042
 39.504	0.86042
 39.508	0.860421
 39.512	0.860421
 39.516	0.860421
 39.52	0.860422
 39.524	0.860422
 39.528	0.860422
 39.532	0.860423
 39.536	0.860423
 39.54	0.860423
 39.544	0.860424
 39.548	0.860424
 39.552	0.860424
 39.556	0.860425
 39.56	0.860425
 39.564	0.860425
 39.568	0.860426
 39.572	0.860426
 39.576	0.860427
 39.58	0.860427
 39.584	0.860427
 39.588	0.860428
 39.592	0.860428
 39.596	0.860428
 39.6	0.860429
 39.604	0.860429
 39.608	0.860429
 39.612	0.86043
 39.616	0.86043
 39.62	0.86043
 39.624	0.860431
 39.628	0.860431
 39.632	0.860432
 39.636	0.860432
 39.64	0.860432
 39.644	0.860433
 39.648	0.860433
 39.652	0.860433
 39.656	0.860434
 39.66	0.860434
 39.664	0.860434
 39.668	0.860435
 39.672	0.860435
 39.676	0.860435
 39.68	0.860436
 39.684	0.860436
 39.688	0.860436
 39.692	0.860437
 39.696	0.860437
 39.7	0.860438
 39.704	0.860438
 39.708	0.860438
 39.712	0.860439
 39.716	0.860439
 39.72	0.860439
 39.724	0.86044
 39.728	0.86044
 39.732	0.86044
 39.736	0.860441
 39.74	0.860441
 39.744	0.860441
 39.748	0.860442
 39.752	0.860442
 39.756	0.860443
 39.76	0.860443
 39.764	0.860443
 39.768	0.860444
 39.772	0.860444
 39.776	0.860444
 39.78	0.860445
 39.784	0.860445
 39.788	0.860445
 39.792	0.860446
 39.796	0.860446
 39.8	0.860446
 39.804	0.860447
 39.808	0.860447
 39.812	0.860447
 39.816	0.860448
 39.82	0.860448
 39.824	0.860449
 39.828	0.860449
 39.832	0.860449
 39.836	0.86045
 39.84	0.86045
 39.844	0.86045
 39.848	0.860451
 39.852	0.860451
 39.856	0.860451
 39.86	0.860452
 39.864	0.860452
 39.868	0.860452
 39.872	0.860453
 39.876	0.860453
 39.88	0.860454
 39.884	0.860454
 39.888	0.860454
 39.892	0.860455
 39.896	0.860455
 39.9	0.860455
 39.904	0.860456
 39.908	0.860456
 39.912	0.860456
 39.916	0.860457
 39.92	0.860457
 39.924	0.860457
 39.928	0.860458
 39.932	0.860458
 39.936	0.860458
 39.94	0.860459
 39.944	0.860459
 39.948	0.86046
 39.952	0.86046
 39.956	0.86046
 39.96	0.860461
 39.964	0.860461
 39.968	0.860461
 39.972	0.860462
 39.976	0.860462
 39.98	0.860462
 39.984	0.860463
 39.988	0.860463
 39.992	0.860463
 39.996	0.860464
 40	0.860464
